thisRow.t,notes,onset,response,stim,sequence_position,participant_id,session_id,recall_stim_type,response_type,match_stim_type,parameters,
,,17.63510150000002,149.76392380914353,152.0,0,lc,lc_1752238985,None,wheelGrey,text,"{'maintenance_time': 2.0, 'circle_size': 300, 'nb_segments': 360, 'outer_radius': 200, 'inner_radius': 150, 'wheel_beginning': 0, 'wheel_end': 360, 'data_path': '../data/', 'participant_id': 'lc', 'recall_stim_type': None, 'response_type': 'wheelGrey', 'match_stim_type': 'text', 'nb_stim_total': 45, 'nb_stim_per_trial': 45, 'nb_parity': 0, 'fullscreen': False, 'color_to_text_filename': '', 'session_id': 'lc_1752238985'}",
,,27.10189760000003,168.8529934740781,168.0,0,lc,lc_1752238985,None,wheelGrey,text,"{'maintenance_time': 2.0, 'circle_size': 300, 'nb_segments': 360, 'outer_radius': 200, 'inner_radius': 150, 'wheel_beginning': 0, 'wheel_end': 360, 'data_path': '../data/', 'participant_id': 'lc', 'recall_stim_type': None, 'response_type': 'wheelGrey', 'match_stim_type': 'text', 'nb_stim_total': 45, 'nb_stim_per_trial': 45, 'nb_parity': 0, 'fullscreen': False, 'color_to_text_filename': '', 'session_id': 'lc_1752238985'}",
,,38.752957400000014,188.66413543310804,208.0,0,lc,lc_1752238985,None,wheelGrey,text,"{'maintenance_time': 2.0, 'circle_size': 300, 'nb_segments': 360, 'outer_radius': 200, 'inner_radius': 150, 'wheel_beginning': 0, 'wheel_end': 360, 'data_path': '../data/', 'participant_id': 'lc', 'recall_stim_type': None, 'response_type': 'wheelGrey', 'match_stim_type': 'text', 'nb_stim_total': 45, 'nb_stim_per_trial': 45, 'nb_parity': 0, 'fullscreen': False, 'color_to_text_filename': '', 'session_id': 'lc_1752238985'}",
,,48.55277320000005,266.9059419410829,256.0,0,lc,lc_1752238985,None,wheelGrey,text,"{'maintenance_time': 2.0, 'circle_size': 300, 'nb_segments': 360, 'outer_radius': 200, 'inner_radius': 150, 'wheel_beginning': 0, 'wheel_end': 360, 'data_path': '../data/', 'participant_id': 'lc', 'recall_stim_type': None, 'response_type': 'wheelGrey', 'match_stim_type': 'text', 'nb_stim_total': 45, 'nb_stim_per_trial': 45, 'nb_parity': 0, 'fullscreen': False, 'color_to_text_filename': '', 'session_id': 'lc_1752238985'}",
,,58.469347899999775,104.56815186915442,120.0,0,lc,lc_1752238985,None,wheelGrey,text,"{'maintenance_time': 2.0, 'circle_size': 300, 'nb_segments': 360, 'outer_radius': 200, 'inner_radius': 150, 'wheel_beginning': 0, 'wheel_end': 360, 'data_path': '../data/', 'participant_id': 'lc', 'recall_stim_type': None, 'response_type': 'wheelGrey', 'match_stim_type': 'text', 'nb_stim_total': 45, 'nb_stim_per_trial': 45, 'nb_parity': 0, 'fullscreen': False, 'color_to_text_filename': '', 'session_id': 'lc_1752238985'}",
,,68.95364329999984,64.60408815082943,72.0,0,lc,lc_1752238985,None,wheelGrey,text,"{'maintenance_time': 2.0, 'circle_size': 300, 'nb_segments': 360, 'outer_radius': 200, 'inner_radius': 150, 'wheel_beginning': 0, 'wheel_end': 360, 'data_path': '../data/', 'participant_id': 'lc', 'recall_stim_type': None, 'response_type': 'wheelGrey', 'match_stim_type': 'text', 'nb_stim_total': 45, 'nb_stim_per_trial': 45, 'nb_parity': 0, 'fullscreen': False, 'color_to_text_filename': '', 'session_id': 'lc_1752238985'}",
,,78.02095220000001,6.4698199851731735,24.0,0,lc,lc_1752238985,None,wheelGrey,text,"{'maintenance_time': 2.0, 'circle_size': 300, 'nb_segments': 360, 'outer_radius': 200, 'inner_radius': 150, 'wheel_beginning': 0, 'wheel_end': 360, 'data_path': '../data/', 'participant_id': 'lc', 'recall_stim_type': None, 'response_type': 'wheelGrey', 'match_stim_type': 'text', 'nb_stim_total': 45, 'nb_stim_per_trial': 45, 'nb_parity': 0, 'fullscreen': False, 'color_to_text_filename': '', 'session_id': 'lc_1752238985'}",
,,88.05368839999983,131.8636416316674,144.0,0,lc,lc_1752238985,None,wheelGrey,text,"{'maintenance_time': 2.0, 'circle_size': 300, 'nb_segments': 360, 'outer_radius': 200, 'inner_radius': 150, 'wheel_beginning': 0, 'wheel_end': 360, 'data_path': '../data/', 'participant_id': 'lc', 'recall_stim_type': None, 'response_type': 'wheelGrey', 'match_stim_type': 'text', 'nb_stim_total': 45, 'nb_stim_per_trial': 45, 'nb_parity': 0, 'fullscreen': False, 'color_to_text_filename': '', 'session_id': 'lc_1752238985'}",
,,97.23663099999976,50.09211512449896,64.0,0,lc,lc_1752238985,None,wheelGrey,text,"{'maintenance_time': 2.0, 'circle_size': 300, 'nb_segments': 360, 'outer_radius': 200, 'inner_radius': 150, 'wheel_beginning': 0, 'wheel_end': 360, 'data_path': '../data/', 'participant_id': 'lc', 'recall_stim_type': None, 'response_type': 'wheelGrey', 'match_stim_type': 'text', 'nb_stim_total': 45, 'nb_stim_per_trial': 45, 'nb_parity': 0, 'fullscreen': False, 'color_to_text_filename': '', 'session_id': 'lc_1752238985'}",
,,114.88666939999985,10.669782804496677,8.0,0,lc,lc_1752238985,None,wheelGrey,text,"{'maintenance_time': 2.0, 'circle_size': 300, 'nb_segments': 360, 'outer_radius': 200, 'inner_radius': 150, 'wheel_beginning': 0, 'wheel_end': 360, 'data_path': '../data/', 'participant_id': 'lc', 'recall_stim_type': None, 'response_type': 'wheelGrey', 'match_stim_type': 'text', 'nb_stim_total': 45, 'nb_stim_per_trial': 45, 'nb_parity': 0, 'fullscreen': False, 'color_to_text_filename': '', 'session_id': 'lc_1752238985'}",
,,132.8539120999999,291.6356555239404,264.0,0,lc,lc_1752238985,None,wheelGrey,text,"{'maintenance_time': 2.0, 'circle_size': 300, 'nb_segments': 360, 'outer_radius': 200, 'inner_radius': 150, 'wheel_beginning': 0, 'wheel_end': 360, 'data_path': '../data/', 'participant_id': 'lc', 'recall_stim_type': None, 'response_type': 'wheelGrey', 'match_stim_type': 'text', 'nb_stim_total': 45, 'nb_stim_per_trial': 45, 'nb_parity': 0, 'fullscreen': False, 'color_to_text_filename': '', 'session_id': 'lc_1752238985'}",
,,142.05382629999986,131.8636416316674,128.0,0,lc,lc_1752238985,None,wheelGrey,text,"{'maintenance_time': 2.0, 'circle_size': 300, 'nb_segments': 360, 'outer_radius': 200, 'inner_radius': 150, 'wheel_beginning': 0, 'wheel_end': 360, 'data_path': '../data/', 'participant_id': 'lc', 'recall_stim_type': None, 'response_type': 'wheelGrey', 'match_stim_type': 'text', 'nb_stim_total': 45, 'nb_stim_per_trial': 45, 'nb_parity': 0, 'fullscreen': False, 'color_to_text_filename': '', 'session_id': 'lc_1752238985'}",
,,151.45446559999982,32.287487179128505,32.0,0,lc,lc_1752238985,None,wheelGrey,text,"{'maintenance_time': 2.0, 'circle_size': 300, 'nb_segments': 360, 'outer_radius': 200, 'inner_radius': 150, 'wheel_beginning': 0, 'wheel_end': 360, 'data_path': '../data/', 'participant_id': 'lc', 'recall_stim_type': None, 'response_type': 'wheelGrey', 'match_stim_type': 'text', 'nb_stim_total': 45, 'nb_stim_per_trial': 45, 'nb_parity': 0, 'fullscreen': False, 'color_to_text_filename': '', 'session_id': 'lc_1752238985'}",
,,161.75475579999966,359.7191405853166,0.0,0,lc,lc_1752238985,None,wheelGrey,text,"{'maintenance_time': 2.0, 'circle_size': 300, 'nb_segments': 360, 'outer_radius': 200, 'inner_radius': 150, 'wheel_beginning': 0, 'wheel_end': 360, 'data_path': '../data/', 'participant_id': 'lc', 'recall_stim_type': None, 'response_type': 'wheelGrey', 'match_stim_type': 'text', 'nb_stim_total': 45, 'nb_stim_per_trial': 45, 'nb_parity': 0, 'fullscreen': False, 'color_to_text_filename': '', 'session_id': 'lc_1752238985'}",
,,173.43795299999965,196.23884162969227,192.0,0,lc,lc_1752238985,None,wheelGrey,text,"{'maintenance_time': 2.0, 'circle_size': 300, 'nb_segments': 360, 'outer_radius': 200, 'inner_radius': 150, 'wheel_beginning': 0, 'wheel_end': 360, 'data_path': '../data/', 'participant_id': 'lc', 'recall_stim_type': None, 'response_type': 'wheelGrey', 'match_stim_type': 'text', 'nb_stim_total': 45, 'nb_stim_per_trial': 45, 'nb_parity': 0, 'fullscreen': False, 'color_to_text_filename': '', 'session_id': 'lc_1752238985'}",
,,182.32116580000002,172.76762129172235,176.0,0,lc,lc_1752238985,None,wheelGrey,text,"{'maintenance_time': 2.0, 'circle_size': 300, 'nb_segments': 360, 'outer_radius': 200, 'inner_radius': 150, 'wheel_beginning': 0, 'wheel_end': 360, 'data_path': '../data/', 'participant_id': 'lc', 'recall_stim_type': None, 'response_type': 'wheelGrey', 'match_stim_type': 'text', 'nb_stim_total': 45, 'nb_stim_per_trial': 45, 'nb_parity': 0, 'fullscreen': False, 'color_to_text_filename': '', 'session_id': 'lc_1752238985'}",
,,193.87169219999987,292.43037980334157,296.0,0,lc,lc_1752238985,None,wheelGrey,text,"{'maintenance_time': 2.0, 'circle_size': 300, 'nb_segments': 360, 'outer_radius': 200, 'inner_radius': 150, 'wheel_beginning': 0, 'wheel_end': 360, 'data_path': '../data/', 'participant_id': 'lc', 'recall_stim_type': None, 'response_type': 'wheelGrey', 'match_stim_type': 'text', 'nb_stim_total': 45, 'nb_stim_per_trial': 45, 'nb_parity': 0, 'fullscreen': False, 'color_to_text_filename': '', 'session_id': 'lc_1752238985'}",
,,203.4219522999997,221.84928358673224,248.0,0,lc,lc_1752238985,None,wheelGrey,text,"{'maintenance_time': 2.0, 'circle_size': 300, 'nb_segments': 360, 'outer_radius': 200, 'inner_radius': 150, 'wheel_beginning': 0, 'wheel_end': 360, 'data_path': '../data/', 'participant_id': 'lc', 'recall_stim_type': None, 'response_type': 'wheelGrey', 'match_stim_type': 'text', 'nb_stim_total': 45, 'nb_stim_per_trial': 45, 'nb_parity': 0, 'fullscreen': False, 'color_to_text_filename': '', 'session_id': 'lc_1752238985'}",
,,214.9221451999997,0.5876284162399621,16.0,0,lc,lc_1752238985,None,wheelGrey,text,"{'maintenance_time': 2.0, 'circle_size': 300, 'nb_segments': 360, 'outer_radius': 200, 'inner_radius': 150, 'wheel_beginning': 0, 'wheel_end': 360, 'data_path': '../data/', 'participant_id': 'lc', 'recall_stim_type': None, 'response_type': 'wheelGrey', 'match_stim_type': 'text', 'nb_stim_total': 45, 'nb_stim_per_trial': 45, 'nb_parity': 0, 'fullscreen': False, 'color_to_text_filename': '', 'session_id': 'lc_1752238985'}",
,,223.9554138999997,175.1501560982172,184.0,0,lc,lc_1752238985,None,wheelGrey,text,"{'maintenance_time': 2.0, 'circle_size': 300, 'nb_segments': 360, 'outer_radius': 200, 'inner_radius': 150, 'wheel_beginning': 0, 'wheel_end': 360, 'data_path': '../data/', 'participant_id': 'lc', 'recall_stim_type': None, 'response_type': 'wheelGrey', 'match_stim_type': 'text', 'nb_stim_total': 45, 'nb_stim_per_trial': 45, 'nb_parity': 0, 'fullscreen': False, 'color_to_text_filename': '', 'session_id': 'lc_1752238985'}",
,,232.40569019999975,140.71059313749967,112.0,0,lc,lc_1752238985,None,wheelGrey,text,"{'maintenance_time': 2.0, 'circle_size': 300, 'nb_segments': 360, 'outer_radius': 200, 'inner_radius': 150, 'wheel_beginning': 0, 'wheel_end': 360, 'data_path': '../data/', 'participant_id': 'lc', 'recall_stim_type': None, 'response_type': 'wheelGrey', 'match_stim_type': 'text', 'nb_stim_total': 45, 'nb_stim_per_trial': 45, 'nb_parity': 0, 'fullscreen': False, 'color_to_text_filename': '', 'session_id': 'lc_1752238985'}",
,,241.42372989999967,324.86580694308435,312.0,0,lc,lc_1752238985,None,wheelGrey,text,"{'maintenance_time': 2.0, 'circle_size': 300, 'nb_segments': 360, 'outer_radius': 200, 'inner_radius': 150, 'wheel_beginning': 0, 'wheel_end': 360, 'data_path': '../data/', 'participant_id': 'lc', 'recall_stim_type': None, 'response_type': 'wheelGrey', 'match_stim_type': 'text', 'nb_stim_total': 45, 'nb_stim_per_trial': 45, 'nb_parity': 0, 'fullscreen': False, 'color_to_text_filename': '', 'session_id': 'lc_1752238985'}",
,,251.92380169999979,270.0,280.0,0,lc,lc_1752238985,None,wheelGrey,text,"{'maintenance_time': 2.0, 'circle_size': 300, 'nb_segments': 360, 'outer_radius': 200, 'inner_radius': 150, 'wheel_beginning': 0, 'wheel_end': 360, 'data_path': '../data/', 'participant_id': 'lc', 'recall_stim_type': None, 'response_type': 'wheelGrey', 'match_stim_type': 'text', 'nb_stim_total': 45, 'nb_stim_per_trial': 45, 'nb_parity': 0, 'fullscreen': False, 'color_to_text_filename': '', 'session_id': 'lc_1752238985'}",
,,267.1570225999999,80.00758547378376,96.0,0,lc,lc_1752238985,None,wheelGrey,text,"{'maintenance_time': 2.0, 'circle_size': 300, 'nb_segments': 360, 'outer_radius': 200, 'inner_radius': 150, 'wheel_beginning': 0, 'wheel_end': 360, 'data_path': '../data/', 'participant_id': 'lc', 'recall_stim_type': None, 'response_type': 'wheelGrey', 'match_stim_type': 'text', 'nb_stim_total': 45, 'nb_stim_per_trial': 45, 'nb_parity': 0, 'fullscreen': False, 'color_to_text_filename': '', 'session_id': 'lc_1752238985'}",
,,277.8897981,289.5085089868081,272.0,0,lc,lc_1752238985,None,wheelGrey,text,"{'maintenance_time': 2.0, 'circle_size': 300, 'nb_segments': 360, 'outer_radius': 200, 'inner_radius': 150, 'wheel_beginning': 0, 'wheel_end': 360, 'data_path': '../data/', 'participant_id': 'lc', 'recall_stim_type': None, 'response_type': 'wheelGrey', 'match_stim_type': 'text', 'nb_stim_total': 45, 'nb_stim_per_trial': 45, 'nb_parity': 0, 'fullscreen': False, 'color_to_text_filename': '', 'session_id': 'lc_1752238985'}",
,,290.0080192999999,90.79205709216241,88.0,0,lc,lc_1752238985,None,wheelGrey,text,"{'maintenance_time': 2.0, 'circle_size': 300, 'nb_segments': 360, 'outer_radius': 200, 'inner_radius': 150, 'wheel_beginning': 0, 'wheel_end': 360, 'data_path': '../data/', 'participant_id': 'lc', 'recall_stim_type': None, 'response_type': 'wheelGrey', 'match_stim_type': 'text', 'nb_stim_total': 45, 'nb_stim_per_trial': 45, 'nb_parity': 0, 'fullscreen': False, 'color_to_text_filename': '', 'session_id': 'lc_1752238985'}",
,,303.20710199999985,314.8017454988008,320.0,0,lc,lc_1752238985,None,wheelGrey,text,"{'maintenance_time': 2.0, 'circle_size': 300, 'nb_segments': 360, 'outer_radius': 200, 'inner_radius': 150, 'wheel_beginning': 0, 'wheel_end': 360, 'data_path': '../data/', 'participant_id': 'lc', 'recall_stim_type': None, 'response_type': 'wheelGrey', 'match_stim_type': 'text', 'nb_stim_total': 45, 'nb_stim_per_trial': 45, 'nb_parity': 0, 'fullscreen': False, 'color_to_text_filename': '', 'session_id': 'lc_1752238985'}",
,,321.5902317,201.13982480865766,216.0,0,lc,lc_1752238985,None,wheelGrey,text,"{'maintenance_time': 2.0, 'circle_size': 300, 'nb_segments': 360, 'outer_radius': 200, 'inner_radius': 150, 'wheel_beginning': 0, 'wheel_end': 360, 'data_path': '../data/', 'participant_id': 'lc', 'recall_stim_type': None, 'response_type': 'wheelGrey', 'match_stim_type': 'text', 'nb_stim_total': 45, 'nb_stim_per_trial': 45, 'nb_parity': 0, 'fullscreen': False, 'color_to_text_filename': '', 'session_id': 'lc_1752238985'}",
,,331.39073959999996,214.3006566256958,240.0,0,lc,lc_1752238985,None,wheelGrey,text,"{'maintenance_time': 2.0, 'circle_size': 300, 'nb_segments': 360, 'outer_radius': 200, 'inner_radius': 150, 'wheel_beginning': 0, 'wheel_end': 360, 'data_path': '../data/', 'participant_id': 'lc', 'recall_stim_type': None, 'response_type': 'wheelGrey', 'match_stim_type': 'text', 'nb_stim_total': 45, 'nb_stim_per_trial': 45, 'nb_parity': 0, 'fullscreen': False, 'color_to_text_filename': '', 'session_id': 'lc_1752238985'}",
,,339.69092379999984,194.03624346792648,200.0,0,lc,lc_1752238985,None,wheelGrey,text,"{'maintenance_time': 2.0, 'circle_size': 300, 'nb_segments': 360, 'outer_radius': 200, 'inner_radius': 150, 'wheel_beginning': 0, 'wheel_end': 360, 'data_path': '../data/', 'participant_id': 'lc', 'recall_stim_type': None, 'response_type': 'wheelGrey', 'match_stim_type': 'text', 'nb_stim_total': 45, 'nb_stim_per_trial': 45, 'nb_parity': 0, 'fullscreen': False, 'color_to_text_filename': '', 'session_id': 'lc_1752238985'}",
,,351.6911720999997,73.14924678592772,80.0,0,lc,lc_1752238985,None,wheelGrey,text,"{'maintenance_time': 2.0, 'circle_size': 300, 'nb_segments': 360, 'outer_radius': 200, 'inner_radius': 150, 'wheel_beginning': 0, 'wheel_end': 360, 'data_path': '../data/', 'participant_id': 'lc', 'recall_stim_type': None, 'response_type': 'wheelGrey', 'match_stim_type': 'text', 'nb_stim_total': 45, 'nb_stim_per_trial': 45, 'nb_parity': 0, 'fullscreen': False, 'color_to_text_filename': '', 'session_id': 'lc_1752238985'}",
,,363.2772421999998,313.28734742331125,304.0,0,lc,lc_1752238985,None,wheelGrey,text,"{'maintenance_time': 2.0, 'circle_size': 300, 'nb_segments': 360, 'outer_radius': 200, 'inner_radius': 150, 'wheel_beginning': 0, 'wheel_end': 360, 'data_path': '../data/', 'participant_id': 'lc', 'recall_stim_type': None, 'response_type': 'wheelGrey', 'match_stim_type': 'text', 'nb_stim_total': 45, 'nb_stim_per_trial': 45, 'nb_parity': 0, 'fullscreen': False, 'color_to_text_filename': '', 'session_id': 'lc_1752238985'}",
,,374.8277442999997,38.69637224371049,40.0,0,lc,lc_1752238985,None,wheelGrey,text,"{'maintenance_time': 2.0, 'circle_size': 300, 'nb_segments': 360, 'outer_radius': 200, 'inner_radius': 150, 'wheel_beginning': 0, 'wheel_end': 360, 'data_path': '../data/', 'participant_id': 'lc', 'recall_stim_type': None, 'response_type': 'wheelGrey', 'match_stim_type': 'text', 'nb_stim_total': 45, 'nb_stim_per_trial': 45, 'nb_parity': 0, 'fullscreen': False, 'color_to_text_filename': '', 'session_id': 'lc_1752238985'}",
,,383.34276139999974,53.53076560994813,56.0,0,lc,lc_1752238985,None,wheelGrey,text,"{'maintenance_time': 2.0, 'circle_size': 300, 'nb_segments': 360, 'outer_radius': 200, 'inner_radius': 150, 'wheel_beginning': 0, 'wheel_end': 360, 'data_path': '../data/', 'participant_id': 'lc', 'recall_stim_type': None, 'response_type': 'wheelGrey', 'match_stim_type': 'text', 'nb_stim_total': 45, 'nb_stim_per_trial': 45, 'nb_parity': 0, 'fullscreen': False, 'color_to_text_filename': '', 'session_id': 'lc_1752238985'}",
,,395.9913357999999,347.5382440794462,344.0,0,lc,lc_1752238985,None,wheelGrey,text,"{'maintenance_time': 2.0, 'circle_size': 300, 'nb_segments': 360, 'outer_radius': 200, 'inner_radius': 150, 'wheel_beginning': 0, 'wheel_end': 360, 'data_path': '../data/', 'participant_id': 'lc', 'recall_stim_type': None, 'response_type': 'wheelGrey', 'match_stim_type': 'text', 'nb_stim_total': 45, 'nb_stim_per_trial': 45, 'nb_parity': 0, 'fullscreen': False, 'color_to_text_filename': '', 'session_id': 'lc_1752238985'}",
,,404.9251810999999,355.077581812864,352.0,0,lc,lc_1752238985,None,wheelGrey,text,"{'maintenance_time': 2.0, 'circle_size': 300, 'nb_segments': 360, 'outer_radius': 200, 'inner_radius': 150, 'wheel_beginning': 0, 'wheel_end': 360, 'data_path': '../data/', 'participant_id': 'lc', 'recall_stim_type': None, 'response_type': 'wheelGrey', 'match_stim_type': 'text', 'nb_stim_total': 45, 'nb_stim_per_trial': 45, 'nb_parity': 0, 'fullscreen': False, 'color_to_text_filename': '', 'session_id': 'lc_1752238985'}",
,,415.8760477999999,341.6489395205216,336.0,0,lc,lc_1752238985,None,wheelGrey,text,"{'maintenance_time': 2.0, 'circle_size': 300, 'nb_segments': 360, 'outer_radius': 200, 'inner_radius': 150, 'wheel_beginning': 0, 'wheel_end': 360, 'data_path': '../data/', 'participant_id': 'lc', 'recall_stim_type': None, 'response_type': 'wheelGrey', 'match_stim_type': 'text', 'nb_stim_total': 45, 'nb_stim_per_trial': 45, 'nb_parity': 0, 'fullscreen': False, 'color_to_text_filename': '', 'session_id': 'lc_1752238985'}",
,,427.6426713999999,86.29945694482167,104.0,0,lc,lc_1752238985,None,wheelGrey,text,"{'maintenance_time': 2.0, 'circle_size': 300, 'nb_segments': 360, 'outer_radius': 200, 'inner_radius': 150, 'wheel_beginning': 0, 'wheel_end': 360, 'data_path': '../data/', 'participant_id': 'lc', 'recall_stim_type': None, 'response_type': 'wheelGrey', 'match_stim_type': 'text', 'nb_stim_total': 45, 'nb_stim_per_trial': 45, 'nb_parity': 0, 'fullscreen': False, 'color_to_text_filename': '', 'session_id': 'lc_1752238985'}",
,,440.79394920000004,135.37694047959712,136.0,0,lc,lc_1752238985,None,wheelGrey,text,"{'maintenance_time': 2.0, 'circle_size': 300, 'nb_segments': 360, 'outer_radius': 200, 'inner_radius': 150, 'wheel_beginning': 0, 'wheel_end': 360, 'data_path': '../data/', 'participant_id': 'lc', 'recall_stim_type': None, 'response_type': 'wheelGrey', 'match_stim_type': 'text', 'nb_stim_total': 45, 'nb_stim_per_trial': 45, 'nb_parity': 0, 'fullscreen': False, 'color_to_text_filename': '', 'session_id': 'lc_1752238985'}",
,,449.7435823999999,231.01985126864895,224.0,0,lc,lc_1752238985,None,wheelGrey,text,"{'maintenance_time': 2.0, 'circle_size': 300, 'nb_segments': 360, 'outer_radius': 200, 'inner_radius': 150, 'wheel_beginning': 0, 'wheel_end': 360, 'data_path': '../data/', 'participant_id': 'lc', 'recall_stim_type': None, 'response_type': 'wheelGrey', 'match_stim_type': 'text', 'nb_stim_total': 45, 'nb_stim_per_trial': 45, 'nb_parity': 0, 'fullscreen': False, 'color_to_text_filename': '', 'session_id': 'lc_1752238985'}",
,,458.32886069999995,220.68397248013437,232.0,0,lc,lc_1752238985,None,wheelGrey,text,"{'maintenance_time': 2.0, 'circle_size': 300, 'nb_segments': 360, 'outer_radius': 200, 'inner_radius': 150, 'wheel_beginning': 0, 'wheel_end': 360, 'data_path': '../data/', 'participant_id': 'lc', 'recall_stim_type': None, 'response_type': 'wheelGrey', 'match_stim_type': 'text', 'nb_stim_total': 45, 'nb_stim_per_trial': 45, 'nb_parity': 0, 'fullscreen': False, 'color_to_text_filename': '', 'session_id': 'lc_1752238985'}",
,,470.16008169999986,45.0,48.0,0,lc,lc_1752238985,None,wheelGrey,text,"{'maintenance_time': 2.0, 'circle_size': 300, 'nb_segments': 360, 'outer_radius': 200, 'inner_radius': 150, 'wheel_beginning': 0, 'wheel_end': 360, 'data_path': '../data/', 'participant_id': 'lc', 'recall_stim_type': None, 'response_type': 'wheelGrey', 'match_stim_type': 'text', 'nb_stim_total': 45, 'nb_stim_per_trial': 45, 'nb_parity': 0, 'fullscreen': False, 'color_to_text_filename': '', 'session_id': 'lc_1752238985'}",
,,482.86211809999986,188.20470619156868,160.0,0,lc,lc_1752238985,None,wheelGrey,text,"{'maintenance_time': 2.0, 'circle_size': 300, 'nb_segments': 360, 'outer_radius': 200, 'inner_radius': 150, 'wheel_beginning': 0, 'wheel_end': 360, 'data_path': '../data/', 'participant_id': 'lc', 'recall_stim_type': None, 'response_type': 'wheelGrey', 'match_stim_type': 'text', 'nb_stim_total': 45, 'nb_stim_per_trial': 45, 'nb_parity': 0, 'fullscreen': False, 'color_to_text_filename': '', 'session_id': 'lc_1752238985'}",
,,491.5438630999997,288.8314530780551,288.0,0,lc,lc_1752238985,None,wheelGrey,text,"{'maintenance_time': 2.0, 'circle_size': 300, 'nb_segments': 360, 'outer_radius': 200, 'inner_radius': 150, 'wheel_beginning': 0, 'wheel_end': 360, 'data_path': '../data/', 'participant_id': 'lc', 'recall_stim_type': None, 'response_type': 'wheelGrey', 'match_stim_type': 'text', 'nb_stim_total': 45, 'nb_stim_per_trial': 45, 'nb_parity': 0, 'fullscreen': False, 'color_to_text_filename': '', 'session_id': 'lc_1752238985'}",
,,501.5269466,329.34933204294714,328.0,0,lc,lc_1752238985,None,wheelGrey,text,"{'maintenance_time': 2.0, 'circle_size': 300, 'nb_segments': 360, 'outer_radius': 200, 'inner_radius': 150, 'wheel_beginning': 0, 'wheel_end': 360, 'data_path': '../data/', 'participant_id': 'lc', 'recall_stim_type': None, 'response_type': 'wheelGrey', 'match_stim_type': 'text', 'nb_stim_total': 45, 'nb_stim_per_trial': 45, 'nb_parity': 0, 'fullscreen': False, 'color_to_text_filename': '', 'session_id': 'lc_1752238985'}",
