thisRow.t,notes,onset,response,stim,sequence_position,participant_id,session_id,recall_stim_type,response_type,match_stim_type,parameters,
,,23.904533299966715,157.3228583837551,144.0,0,test,test_1752178125,color,wheel,None,"{'maintenance_time': 2.0, 'circle_size': 300, 'nb_segments': 360, 'outer_radius': 200, 'inner_radius': 150, 'wheel_beginning': 0, 'wheel_end': 360, 'data_path': '../data/', 'participant_id': 'test', 'recall_stim_type': 'color', 'response_type': 'wheel', 'match_stim_type': None, 'nb_stim_total': 45, 'nb_stim_per_trial': 1, 'nb_parity': 0, 'fullscreen': True, 'color_to_text_filename': '', 'session_id': 'test_1752178125'}",
,,38.96733489993494,148.94572888364723,160.0,0,test,test_1752178125,color,wheel,None,"{'maintenance_time': 2.0, 'circle_size': 300, 'nb_segments': 360, 'outer_radius': 200, 'inner_radius': 150, 'wheel_beginning': 0, 'wheel_end': 360, 'data_path': '../data/', 'participant_id': 'test', 'recall_stim_type': 'color', 'response_type': 'wheel', 'match_stim_type': None, 'nb_stim_total': 45, 'nb_stim_per_trial': 1, 'nb_parity': 0, 'fullscreen': True, 'color_to_text_filename': '', 'session_id': 'test_1752178125'}",
,,54.560003499966115,55.66457551745175,72.0,0,test,test_1752178125,color,wheel,None,"{'maintenance_time': 2.0, 'circle_size': 300, 'nb_segments': 360, 'outer_radius': 200, 'inner_radius': 150, 'wheel_beginning': 0, 'wheel_end': 360, 'data_path': '../data/', 'participant_id': 'test', 'recall_stim_type': 'color', 'response_type': 'wheel', 'match_stim_type': None, 'nb_stim_total': 45, 'nb_stim_per_trial': 1, 'nb_parity': 0, 'fullscreen': True, 'color_to_text_filename': '', 'session_id': 'test_1752178125'}",
,,67.51159100001678,55.93594444662276,64.0,0,test,test_1752178125,color,wheel,None,"{'maintenance_time': 2.0, 'circle_size': 300, 'nb_segments': 360, 'outer_radius': 200, 'inner_radius': 150, 'wheel_beginning': 0, 'wheel_end': 360, 'data_path': '../data/', 'participant_id': 'test', 'recall_stim_type': 'color', 'response_type': 'wheel', 'match_stim_type': None, 'nb_stim_total': 45, 'nb_stim_per_trial': 1, 'nb_parity': 0, 'fullscreen': True, 'color_to_text_filename': '', 'session_id': 'test_1752178125'}",
,,81.77420260000508,328.5843141764387,320.0,0,test,test_1752178125,color,wheel,None,"{'maintenance_time': 2.0, 'circle_size': 300, 'nb_segments': 360, 'outer_radius': 200, 'inner_radius': 150, 'wheel_beginning': 0, 'wheel_end': 360, 'data_path': '../data/', 'participant_id': 'test', 'recall_stim_type': 'color', 'response_type': 'wheel', 'match_stim_type': None, 'nb_stim_total': 45, 'nb_stim_per_trial': 1, 'nb_parity': 0, 'fullscreen': True, 'color_to_text_filename': '', 'session_id': 'test_1752178125'}",
,,96.50465969997458,63.43494882292201,56.0,0,test,test_1752178125,color,wheel,None,"{'maintenance_time': 2.0, 'circle_size': 300, 'nb_segments': 360, 'outer_radius': 200, 'inner_radius': 150, 'wheel_beginning': 0, 'wheel_end': 360, 'data_path': '../data/', 'participant_id': 'test', 'recall_stim_type': 'color', 'response_type': 'wheel', 'match_stim_type': None, 'nb_stim_total': 45, 'nb_stim_per_trial': 1, 'nb_parity': 0, 'fullscreen': True, 'color_to_text_filename': '', 'session_id': 'test_1752178125'}",
,,117.60863819997758,185.0424510691709,184.0,0,test,test_1752178125,color,wheel,None,"{'maintenance_time': 2.0, 'circle_size': 300, 'nb_segments': 360, 'outer_radius': 200, 'inner_radius': 150, 'wheel_beginning': 0, 'wheel_end': 360, 'data_path': '../data/', 'participant_id': 'test', 'recall_stim_type': 'color', 'response_type': 'wheel', 'match_stim_type': None, 'nb_stim_total': 45, 'nb_stim_per_trial': 1, 'nb_parity': 0, 'fullscreen': True, 'color_to_text_filename': '', 'session_id': 'test_1752178125'}",
,,132.25520959997084,254.50515140086137,232.0,0,test,test_1752178125,color,wheel,None,"{'maintenance_time': 2.0, 'circle_size': 300, 'nb_segments': 360, 'outer_radius': 200, 'inner_radius': 150, 'wheel_beginning': 0, 'wheel_end': 360, 'data_path': '../data/', 'participant_id': 'test', 'recall_stim_type': 'color', 'response_type': 'wheel', 'match_stim_type': None, 'nb_stim_total': 45, 'nb_stim_per_trial': 1, 'nb_parity': 0, 'fullscreen': True, 'color_to_text_filename': '', 'session_id': 'test_1752178125'}",
,,148.87293860001955,349.67031791098054,352.0,0,test,test_1752178125,color,wheel,None,"{'maintenance_time': 2.0, 'circle_size': 300, 'nb_segments': 360, 'outer_radius': 200, 'inner_radius': 150, 'wheel_beginning': 0, 'wheel_end': 360, 'data_path': '../data/', 'participant_id': 'test', 'recall_stim_type': 'color', 'response_type': 'wheel', 'match_stim_type': None, 'nb_stim_total': 45, 'nb_stim_per_trial': 1, 'nb_parity': 0, 'fullscreen': True, 'color_to_text_filename': '', 'session_id': 'test_1752178125'}",
,,162.18227909994312,343.3007557660064,336.0,0,test,test_1752178125,color,wheel,None,"{'maintenance_time': 2.0, 'circle_size': 300, 'nb_segments': 360, 'outer_radius': 200, 'inner_radius': 150, 'wheel_beginning': 0, 'wheel_end': 360, 'data_path': '../data/', 'participant_id': 'test', 'recall_stim_type': 'color', 'response_type': 'wheel', 'match_stim_type': None, 'nb_stim_total': 45, 'nb_stim_per_trial': 1, 'nb_parity': 0, 'fullscreen': True, 'color_to_text_filename': '', 'session_id': 'test_1752178125'}",
,,182.71261930000037,287.7648533006975,256.0,0,test,test_1752178125,color,wheel,None,"{'maintenance_time': 2.0, 'circle_size': 300, 'nb_segments': 360, 'outer_radius': 200, 'inner_radius': 150, 'wheel_beginning': 0, 'wheel_end': 360, 'data_path': '../data/', 'participant_id': 'test', 'recall_stim_type': 'color', 'response_type': 'wheel', 'match_stim_type': None, 'nb_stim_total': 45, 'nb_stim_per_trial': 1, 'nb_parity': 0, 'fullscreen': True, 'color_to_text_filename': '', 'session_id': 'test_1752178125'}",
,,198.50747189996764,94.57392125990086,112.0,0,test,test_1752178125,color,wheel,None,"{'maintenance_time': 2.0, 'circle_size': 300, 'nb_segments': 360, 'outer_radius': 200, 'inner_radius': 150, 'wheel_beginning': 0, 'wheel_end': 360, 'data_path': '../data/', 'participant_id': 'test', 'recall_stim_type': 'color', 'response_type': 'wheel', 'match_stim_type': None, 'nb_stim_total': 45, 'nb_stim_per_trial': 1, 'nb_parity': 0, 'fullscreen': True, 'color_to_text_filename': '', 'session_id': 'test_1752178125'}",
,,214.34111969999503,280.3973335224364,280.0,0,test,test_1752178125,color,wheel,None,"{'maintenance_time': 2.0, 'circle_size': 300, 'nb_segments': 360, 'outer_radius': 200, 'inner_radius': 150, 'wheel_beginning': 0, 'wheel_end': 360, 'data_path': '../data/', 'participant_id': 'test', 'recall_stim_type': 'color', 'response_type': 'wheel', 'match_stim_type': None, 'nb_stim_total': 45, 'nb_stim_per_trial': 1, 'nb_parity': 0, 'fullscreen': True, 'color_to_text_filename': '', 'session_id': 'test_1752178125'}",
,,230.7444211000111,14.796762245057346,24.0,0,test,test_1752178125,color,wheel,None,"{'maintenance_time': 2.0, 'circle_size': 300, 'nb_segments': 360, 'outer_radius': 200, 'inner_radius': 150, 'wheel_beginning': 0, 'wheel_end': 360, 'data_path': '../data/', 'participant_id': 'test', 'recall_stim_type': 'color', 'response_type': 'wheel', 'match_stim_type': None, 'nb_stim_total': 45, 'nb_stim_per_trial': 1, 'nb_parity': 0, 'fullscreen': True, 'color_to_text_filename': '', 'session_id': 'test_1752178125'}",
,,241.7342215999961,83,88.0,0,test,test_1752178125,color,wheel,None,"{'maintenance_time': 2.0, 'circle_size': 300, 'nb_segments': 360, 'outer_radius': 200, 'inner_radius': 150, 'wheel_beginning': 0, 'wheel_end': 360, 'data_path': '../data/', 'participant_id': 'test', 'recall_stim_type': 'color', 'response_type': 'wheel', 'match_stim_type': None, 'nb_stim_total': 45, 'nb_stim_per_trial': 1, 'nb_parity': 0, 'fullscreen': True, 'color_to_text_filename': '', 'session_id': 'test_1752178125'}",
,,256.90180110000074,84.37325428485929,80.0,0,test,test_1752178125,color,wheel,None,"{'maintenance_time': 2.0, 'circle_size': 300, 'nb_segments': 360, 'outer_radius': 200, 'inner_radius': 150, 'wheel_beginning': 0, 'wheel_end': 360, 'data_path': '../data/', 'participant_id': 'test', 'recall_stim_type': 'color', 'response_type': 'wheel', 'match_stim_type': None, 'nb_stim_total': 45, 'nb_stim_per_trial': 1, 'nb_parity': 0, 'fullscreen': True, 'color_to_text_filename': '', 'session_id': 'test_1752178125'}",
,,271.47429199994076,46.580172472800015,40.0,0,test,test_1752178125,color,wheel,None,"{'maintenance_time': 2.0, 'circle_size': 300, 'nb_segments': 360, 'outer_radius': 200, 'inner_radius': 150, 'wheel_beginning': 0, 'wheel_end': 360, 'data_path': '../data/', 'participant_id': 'test', 'recall_stim_type': 'color', 'response_type': 'wheel', 'match_stim_type': None, 'nb_stim_total': 45, 'nb_stim_per_trial': 1, 'nb_parity': 0, 'fullscreen': True, 'color_to_text_filename': '', 'session_id': 'test_1752178125'}",
,,283.8044846999692,210.0183674276091,208.0,0,test,test_1752178125,color,wheel,None,"{'maintenance_time': 2.0, 'circle_size': 300, 'nb_segments': 360, 'outer_radius': 200, 'inner_radius': 150, 'wheel_beginning': 0, 'wheel_end': 360, 'data_path': '../data/', 'participant_id': 'test', 'recall_stim_type': 'color', 'response_type': 'wheel', 'match_stim_type': None, 'nb_stim_total': 45, 'nb_stim_per_trial': 1, 'nb_parity': 0, 'fullscreen': True, 'color_to_text_filename': '', 'session_id': 'test_1752178125'}",
,,297.43944129999727,42.67846941016728,48.0,0,test,test_1752178125,color,wheel,None,"{'maintenance_time': 2.0, 'circle_size': 300, 'nb_segments': 360, 'outer_radius': 200, 'inner_radius': 150, 'wheel_beginning': 0, 'wheel_end': 360, 'data_path': '../data/', 'participant_id': 'test', 'recall_stim_type': 'color', 'response_type': 'wheel', 'match_stim_type': None, 'nb_stim_total': 45, 'nb_stim_per_trial': 1, 'nb_parity': 0, 'fullscreen': True, 'color_to_text_filename': '', 'session_id': 'test_1752178125'}",
,,313.7216952999588,280.8193984019788,264.0,0,test,test_1752178125,color,wheel,None,"{'maintenance_time': 2.0, 'circle_size': 300, 'nb_segments': 360, 'outer_radius': 200, 'inner_radius': 150, 'wheel_beginning': 0, 'wheel_end': 360, 'data_path': '../data/', 'participant_id': 'test', 'recall_stim_type': 'color', 'response_type': 'wheel', 'match_stim_type': None, 'nb_stim_total': 45, 'nb_stim_per_trial': 1, 'nb_parity': 0, 'fullscreen': True, 'color_to_text_filename': '', 'session_id': 'test_1752178125'}",
,,331.6396454999922,219.32464411483085,216.0,0,test,test_1752178125,color,wheel,None,"{'maintenance_time': 2.0, 'circle_size': 300, 'nb_segments': 360, 'outer_radius': 200, 'inner_radius': 150, 'wheel_beginning': 0, 'wheel_end': 360, 'data_path': '../data/', 'participant_id': 'test', 'recall_stim_type': 'color', 'response_type': 'wheel', 'match_stim_type': None, 'nb_stim_total': 45, 'nb_stim_per_trial': 1, 'nb_parity': 0, 'fullscreen': True, 'color_to_text_filename': '', 'session_id': 'test_1752178125'}",
,,344.04401409998536,183.44420251465328,176.0,0,test,test_1752178125,color,wheel,None,"{'maintenance_time': 2.0, 'circle_size': 300, 'nb_segments': 360, 'outer_radius': 200, 'inner_radius': 150, 'wheel_beginning': 0, 'wheel_end': 360, 'data_path': '../data/', 'participant_id': 'test', 'recall_stim_type': 'color', 'response_type': 'wheel', 'match_stim_type': None, 'nb_stim_total': 45, 'nb_stim_per_trial': 1, 'nb_parity': 0, 'fullscreen': True, 'color_to_text_filename': '', 'session_id': 'test_1752178125'}",
,,358.40250690001994,7.8257451664089,0.0,0,test,test_1752178125,color,wheel,None,"{'maintenance_time': 2.0, 'circle_size': 300, 'nb_segments': 360, 'outer_radius': 200, 'inner_radius': 150, 'wheel_beginning': 0, 'wheel_end': 360, 'data_path': '../data/', 'participant_id': 'test', 'recall_stim_type': 'color', 'response_type': 'wheel', 'match_stim_type': None, 'nb_stim_total': 45, 'nb_stim_per_trial': 1, 'nb_parity': 0, 'fullscreen': True, 'color_to_text_filename': '', 'session_id': 'test_1752178125'}",
,,370.8370525999926,148.69257110580227,152.0,0,test,test_1752178125,color,wheel,None,"{'maintenance_time': 2.0, 'circle_size': 300, 'nb_segments': 360, 'outer_radius': 200, 'inner_radius': 150, 'wheel_beginning': 0, 'wheel_end': 360, 'data_path': '../data/', 'participant_id': 'test', 'recall_stim_type': 'color', 'response_type': 'wheel', 'match_stim_type': None, 'nb_stim_total': 45, 'nb_stim_per_trial': 1, 'nb_parity': 0, 'fullscreen': True, 'color_to_text_filename': '', 'session_id': 'test_1752178125'}",
,,388.93734259996563,317.40260946898604,312.0,0,test,test_1752178125,color,wheel,None,"{'maintenance_time': 2.0, 'circle_size': 300, 'nb_segments': 360, 'outer_radius': 200, 'inner_radius': 150, 'wheel_beginning': 0, 'wheel_end': 360, 'data_path': '../data/', 'participant_id': 'test', 'recall_stim_type': 'color', 'response_type': 'wheel', 'match_stim_type': None, 'nb_stim_total': 45, 'nb_stim_per_trial': 1, 'nb_parity': 0, 'fullscreen': True, 'color_to_text_filename': '', 'session_id': 'test_1752178125'}",
,,401.6706601999467,339.9918953210854,328.0,0,test,test_1752178125,color,wheel,None,"{'maintenance_time': 2.0, 'circle_size': 300, 'nb_segments': 360, 'outer_radius': 200, 'inner_radius': 150, 'wheel_beginning': 0, 'wheel_end': 360, 'data_path': '../data/', 'participant_id': 'test', 'recall_stim_type': 'color', 'response_type': 'wheel', 'match_stim_type': None, 'nb_stim_total': 45, 'nb_stim_per_trial': 1, 'nb_parity': 0, 'fullscreen': True, 'color_to_text_filename': '', 'session_id': 'test_1752178125'}",
,,416.6853258999763,84.8055710922652,96.0,0,test,test_1752178125,color,wheel,None,"{'maintenance_time': 2.0, 'circle_size': 300, 'nb_segments': 360, 'outer_radius': 200, 'inner_radius': 150, 'wheel_beginning': 0, 'wheel_end': 360, 'data_path': '../data/', 'participant_id': 'test', 'recall_stim_type': 'color', 'response_type': 'wheel', 'match_stim_type': None, 'nb_stim_total': 45, 'nb_stim_per_trial': 1, 'nb_parity': 0, 'fullscreen': True, 'color_to_text_filename': '', 'session_id': 'test_1752178125'}",
,,428.72323620005045,14.879721752003187,16.0,0,test,test_1752178125,color,wheel,None,"{'maintenance_time': 2.0, 'circle_size': 300, 'nb_segments': 360, 'outer_radius': 200, 'inner_radius': 150, 'wheel_beginning': 0, 'wheel_end': 360, 'data_path': '../data/', 'participant_id': 'test', 'recall_stim_type': 'color', 'response_type': 'wheel', 'match_stim_type': None, 'nb_stim_total': 45, 'nb_stim_per_trial': 1, 'nb_parity': 0, 'fullscreen': True, 'color_to_text_filename': '', 'session_id': 'test_1752178125'}",
,,440.88801200001035,336.8014094863518,344.0,0,test,test_1752178125,color,wheel,None,"{'maintenance_time': 2.0, 'circle_size': 300, 'nb_segments': 360, 'outer_radius': 200, 'inner_radius': 150, 'wheel_beginning': 0, 'wheel_end': 360, 'data_path': '../data/', 'participant_id': 'test', 'recall_stim_type': 'color', 'response_type': 'wheel', 'match_stim_type': None, 'nb_stim_total': 45, 'nb_stim_per_trial': 1, 'nb_parity': 0, 'fullscreen': True, 'color_to_text_filename': '', 'session_id': 'test_1752178125'}",
,,456.10561710002366,180.0,168.0,0,test,test_1752178125,color,wheel,None,"{'maintenance_time': 2.0, 'circle_size': 300, 'nb_segments': 360, 'outer_radius': 200, 'inner_radius': 150, 'wheel_beginning': 0, 'wheel_end': 360, 'data_path': '../data/', 'participant_id': 'test', 'recall_stim_type': 'color', 'response_type': 'wheel', 'match_stim_type': None, 'nb_stim_total': 45, 'nb_stim_per_trial': 1, 'nb_parity': 0, 'fullscreen': True, 'color_to_text_filename': '', 'session_id': 'test_1752178125'}",
,,468.86793529998977,290.84236266726214,288.0,0,test,test_1752178125,color,wheel,None,"{'maintenance_time': 2.0, 'circle_size': 300, 'nb_segments': 360, 'outer_radius': 200, 'inner_radius': 150, 'wheel_beginning': 0, 'wheel_end': 360, 'data_path': '../data/', 'participant_id': 'test', 'recall_stim_type': 'color', 'response_type': 'wheel', 'match_stim_type': None, 'nb_stim_total': 45, 'nb_stim_per_trial': 1, 'nb_parity': 0, 'fullscreen': True, 'color_to_text_filename': '', 'session_id': 'test_1752178125'}",
,,488.97742799995467,95.04245106917092,104.0,0,test,test_1752178125,color,wheel,None,"{'maintenance_time': 2.0, 'circle_size': 300, 'nb_segments': 360, 'outer_radius': 200, 'inner_radius': 150, 'wheel_beginning': 0, 'wheel_end': 360, 'data_path': '../data/', 'participant_id': 'test', 'recall_stim_type': 'color', 'response_type': 'wheel', 'match_stim_type': None, 'nb_stim_total': 45, 'nb_stim_per_trial': 1, 'nb_parity': 0, 'fullscreen': True, 'color_to_text_filename': '', 'session_id': 'test_1752178125'}",
,,506.56944410002325,152.95449233199386,136.0,0,test,test_1752178125,color,wheel,None,"{'maintenance_time': 2.0, 'circle_size': 300, 'nb_segments': 360, 'outer_radius': 200, 'inner_radius': 150, 'wheel_beginning': 0, 'wheel_end': 360, 'data_path': '../data/', 'participant_id': 'test', 'recall_stim_type': 'color', 'response_type': 'wheel', 'match_stim_type': None, 'nb_stim_total': 45, 'nb_stim_per_trial': 1, 'nb_parity': 0, 'fullscreen': True, 'color_to_text_filename': '', 'session_id': 'test_1752178125'}",
,,521.1043248999631,200.29756977222868,192.0,0,test,test_1752178125,color,wheel,None,"{'maintenance_time': 2.0, 'circle_size': 300, 'nb_segments': 360, 'outer_radius': 200, 'inner_radius': 150, 'wheel_beginning': 0, 'wheel_end': 360, 'data_path': '../data/', 'participant_id': 'test', 'recall_stim_type': 'color', 'response_type': 'wheel', 'match_stim_type': None, 'nb_stim_total': 45, 'nb_stim_per_trial': 1, 'nb_parity': 0, 'fullscreen': True, 'color_to_text_filename': '', 'session_id': 'test_1752178125'}",
,,532.727728900034,200.55604521958347,200.0,0,test,test_1752178125,color,wheel,None,"{'maintenance_time': 2.0, 'circle_size': 300, 'nb_segments': 360, 'outer_radius': 200, 'inner_radius': 150, 'wheel_beginning': 0, 'wheel_end': 360, 'data_path': '../data/', 'participant_id': 'test', 'recall_stim_type': 'color', 'response_type': 'wheel', 'match_stim_type': None, 'nb_stim_total': 45, 'nb_stim_per_trial': 1, 'nb_parity': 0, 'fullscreen': True, 'color_to_text_filename': '', 'session_id': 'test_1752178125'}",
,,550.015276900027,294.9384276554572,296.0,0,test,test_1752178125,color,wheel,None,"{'maintenance_time': 2.0, 'circle_size': 300, 'nb_segments': 360, 'outer_radius': 200, 'inner_radius': 150, 'wheel_beginning': 0, 'wheel_end': 360, 'data_path': '../data/', 'participant_id': 'test', 'recall_stim_type': 'color', 'response_type': 'wheel', 'match_stim_type': None, 'nb_stim_total': 45, 'nb_stim_per_trial': 1, 'nb_parity': 0, 'fullscreen': True, 'color_to_text_filename': '', 'session_id': 'test_1752178125'}",
,,565.5904711999465,321.21182202900917,304.0,0,test,test_1752178125,color,wheel,None,"{'maintenance_time': 2.0, 'circle_size': 300, 'nb_segments': 360, 'outer_radius': 200, 'inner_radius': 150, 'wheel_beginning': 0, 'wheel_end': 360, 'data_path': '../data/', 'participant_id': 'test', 'recall_stim_type': 'color', 'response_type': 'wheel', 'match_stim_type': None, 'nb_stim_total': 45, 'nb_stim_per_trial': 1, 'nb_parity': 0, 'fullscreen': True, 'color_to_text_filename': '', 'session_id': 'test_1752178125'}",
,,579.9183773000259,231.6764800604021,224.0,0,test,test_1752178125,color,wheel,None,"{'maintenance_time': 2.0, 'circle_size': 300, 'nb_segments': 360, 'outer_radius': 200, 'inner_radius': 150, 'wheel_beginning': 0, 'wheel_end': 360, 'data_path': '../data/', 'participant_id': 'test', 'recall_stim_type': 'color', 'response_type': 'wheel', 'match_stim_type': None, 'nb_stim_total': 45, 'nb_stim_per_trial': 1, 'nb_parity': 0, 'fullscreen': True, 'color_to_text_filename': '', 'session_id': 'test_1752178125'}",
,,593.9419960000087,23.55226367289465,32.0,0,test,test_1752178125,color,wheel,None,"{'maintenance_time': 2.0, 'circle_size': 300, 'nb_segments': 360, 'outer_radius': 200, 'inner_radius': 150, 'wheel_beginning': 0, 'wheel_end': 360, 'data_path': '../data/', 'participant_id': 'test', 'recall_stim_type': 'color', 'response_type': 'wheel', 'match_stim_type': None, 'nb_stim_total': 45, 'nb_stim_per_trial': 1, 'nb_parity': 0, 'fullscreen': True, 'color_to_text_filename': '', 'session_id': 'test_1752178125'}",
,,609.0842076999834,277.3121548652982,272.0,0,test,test_1752178125,color,wheel,None,"{'maintenance_time': 2.0, 'circle_size': 300, 'nb_segments': 360, 'outer_radius': 200, 'inner_radius': 150, 'wheel_beginning': 0, 'wheel_end': 360, 'data_path': '../data/', 'participant_id': 'test', 'recall_stim_type': 'color', 'response_type': 'wheel', 'match_stim_type': None, 'nb_stim_total': 45, 'nb_stim_per_trial': 1, 'nb_parity': 0, 'fullscreen': True, 'color_to_text_filename': '', 'session_id': 'test_1752178125'}",
,,624.4212456999812,2.9984671396944584,8.0,0,test,test_1752178125,color,wheel,None,"{'maintenance_time': 2.0, 'circle_size': 300, 'nb_segments': 360, 'outer_radius': 200, 'inner_radius': 150, 'wheel_beginning': 0, 'wheel_end': 360, 'data_path': '../data/', 'participant_id': 'test', 'recall_stim_type': 'color', 'response_type': 'wheel', 'match_stim_type': None, 'nb_stim_total': 45, 'nb_stim_per_trial': 1, 'nb_parity': 0, 'fullscreen': True, 'color_to_text_filename': '', 'session_id': 'test_1752178125'}",
,,650.5781212999718,91.88228244301077,120.0,0,test,test_1752178125,color,wheel,None,"{'maintenance_time': 2.0, 'circle_size': 300, 'nb_segments': 360, 'outer_radius': 200, 'inner_radius': 150, 'wheel_beginning': 0, 'wheel_end': 360, 'data_path': '../data/', 'participant_id': 'test', 'recall_stim_type': 'color', 'response_type': 'wheel', 'match_stim_type': None, 'nb_stim_total': 45, 'nb_stim_per_trial': 1, 'nb_parity': 0, 'fullscreen': True, 'color_to_text_filename': '', 'session_id': 'test_1752178125'}",
,,663.5772192999721,131.5200824957303,128.0,0,test,test_1752178125,color,wheel,None,"{'maintenance_time': 2.0, 'circle_size': 300, 'nb_segments': 360, 'outer_radius': 200, 'inner_radius': 150, 'wheel_beginning': 0, 'wheel_end': 360, 'data_path': '../data/', 'participant_id': 'test', 'recall_stim_type': 'color', 'response_type': 'wheel', 'match_stim_type': None, 'nb_stim_total': 45, 'nb_stim_per_trial': 1, 'nb_parity': 0, 'fullscreen': True, 'color_to_text_filename': '', 'session_id': 'test_1752178125'}",
,,675.7722648000345,236.30993247402023,240.0,0,test,test_1752178125,color,wheel,None,"{'maintenance_time': 2.0, 'circle_size': 300, 'nb_segments': 360, 'outer_radius': 200, 'inner_radius': 150, 'wheel_beginning': 0, 'wheel_end': 360, 'data_path': '../data/', 'participant_id': 'test', 'recall_stim_type': 'color', 'response_type': 'wheel', 'match_stim_type': None, 'nb_stim_total': 45, 'nb_stim_per_trial': 1, 'nb_parity': 0, 'fullscreen': True, 'color_to_text_filename': '', 'session_id': 'test_1752178125'}",
,,689.5146207000362,243.76172729212328,248.0,0,test,test_1752178125,color,wheel,None,"{'maintenance_time': 2.0, 'circle_size': 300, 'nb_segments': 360, 'outer_radius': 200, 'inner_radius': 150, 'wheel_beginning': 0, 'wheel_end': 360, 'data_path': '../data/', 'participant_id': 'test', 'recall_stim_type': 'color', 'response_type': 'wheel', 'match_stim_type': None, 'nb_stim_total': 45, 'nb_stim_per_trial': 1, 'nb_parity': 0, 'fullscreen': True, 'color_to_text_filename': '', 'session_id': 'test_1752178125'}",
