thisRow.t,notes,onset,response,stim,sequence_position,participant_id,session_id,recall_stim_type,response_type,match_stim_type,parameters,
,,20.178606800036505,212.70473357700183,208.0,0,lc,lc_1752174850,None,wheel,color,"{'maintenance_time': 2.0, 'circle_size': 300, 'nb_segments': 360, 'outer_radius': 200, 'inner_radius': 150, 'wheel_beginning': 0, 'wheel_end': 360, 'data_path': '../data/', 'participant_id': 'lc', 'recall_stim_type': None, 'response_type': 'wheel', 'match_stim_type': 'color', 'nb_stim_total': 45, 'nb_stim_per_trial': 45, 'nb_parity': 0, 'fullscreen': True, 'color_to_text_filename': '', 'session_id': 'lc_1752174850'}",
,,40.66783819999546,130.0062560141766,128.0,0,lc,lc_1752174850,None,wheel,color,"{'maintenance_time': 2.0, 'circle_size': 300, 'nb_segments': 360, 'outer_radius': 200, 'inner_radius': 150, 'wheel_beginning': 0, 'wheel_end': 360, 'data_path': '../data/', 'participant_id': 'lc', 'recall_stim_type': None, 'response_type': 'wheel', 'match_stim_type': 'color', 'nb_stim_total': 45, 'nb_stim_per_trial': 45, 'nb_parity': 0, 'fullscreen': True, 'color_to_text_filename': '', 'session_id': 'lc_1752174850'}",
,,50.557770899962634,236.97613244420336,240.0,0,lc,lc_1752174850,None,wheel,color,"{'maintenance_time': 2.0, 'circle_size': 300, 'nb_segments': 360, 'outer_radius': 200, 'inner_radius': 150, 'wheel_beginning': 0, 'wheel_end': 360, 'data_path': '../data/', 'participant_id': 'lc', 'recall_stim_type': None, 'response_type': 'wheel', 'match_stim_type': 'color', 'nb_stim_total': 45, 'nb_stim_per_trial': 45, 'nb_parity': 0, 'fullscreen': True, 'color_to_text_filename': '', 'session_id': 'lc_1752174850'}",
,,59.67102160002105,161.4045592172434,160.0,0,lc,lc_1752174850,None,wheel,color,"{'maintenance_time': 2.0, 'circle_size': 300, 'nb_segments': 360, 'outer_radius': 200, 'inner_radius': 150, 'wheel_beginning': 0, 'wheel_end': 360, 'data_path': '../data/', 'participant_id': 'lc', 'recall_stim_type': None, 'response_type': 'wheel', 'match_stim_type': 'color', 'nb_stim_total': 45, 'nb_stim_per_trial': 45, 'nb_parity': 0, 'fullscreen': True, 'color_to_text_filename': '', 'session_id': 'lc_1752174850'}",
,,77.78504470002372,52.40180540107956,56.0,0,lc,lc_1752174850,None,wheel,color,"{'maintenance_time': 2.0, 'circle_size': 300, 'nb_segments': 360, 'outer_radius': 200, 'inner_radius': 150, 'wheel_beginning': 0, 'wheel_end': 360, 'data_path': '../data/', 'participant_id': 'lc', 'recall_stim_type': None, 'response_type': 'wheel', 'match_stim_type': 'color', 'nb_stim_total': 45, 'nb_stim_per_trial': 45, 'nb_parity': 0, 'fullscreen': True, 'color_to_text_filename': '', 'session_id': 'lc_1752174850'}",
,,88.76134019996971,248.5145566829366,256.0,0,lc,lc_1752174850,None,wheel,color,"{'maintenance_time': 2.0, 'circle_size': 300, 'nb_segments': 360, 'outer_radius': 200, 'inner_radius': 150, 'wheel_beginning': 0, 'wheel_end': 360, 'data_path': '../data/', 'participant_id': 'lc', 'recall_stim_type': None, 'response_type': 'wheel', 'match_stim_type': 'color', 'nb_stim_total': 45, 'nb_stim_per_trial': 45, 'nb_parity': 0, 'fullscreen': True, 'color_to_text_filename': '', 'session_id': 'lc_1752174850'}",
,,102.91076809994411,8.417657177013156,8.0,0,lc,lc_1752174850,None,wheel,color,"{'maintenance_time': 2.0, 'circle_size': 300, 'nb_segments': 360, 'outer_radius': 200, 'inner_radius': 150, 'wheel_beginning': 0, 'wheel_end': 360, 'data_path': '../data/', 'participant_id': 'lc', 'recall_stim_type': None, 'response_type': 'wheel', 'match_stim_type': 'color', 'nb_stim_total': 45, 'nb_stim_per_trial': 45, 'nb_parity': 0, 'fullscreen': True, 'color_to_text_filename': '', 'session_id': 'lc_1752174850'}",
,,122.96980520000216,322.59464336859145,320.0,0,lc,lc_1752174850,None,wheel,color,"{'maintenance_time': 2.0, 'circle_size': 300, 'nb_segments': 360, 'outer_radius': 200, 'inner_radius': 150, 'wheel_beginning': 0, 'wheel_end': 360, 'data_path': '../data/', 'participant_id': 'lc', 'recall_stim_type': None, 'response_type': 'wheel', 'match_stim_type': 'color', 'nb_stim_total': 45, 'nb_stim_per_trial': 45, 'nb_parity': 0, 'fullscreen': True, 'color_to_text_filename': '', 'session_id': 'lc_1752174850'}",
,,133.79360620002262,338.67053848472045,336.0,0,lc,lc_1752174850,None,wheel,color,"{'maintenance_time': 2.0, 'circle_size': 300, 'nb_segments': 360, 'outer_radius': 200, 'inner_radius': 150, 'wheel_beginning': 0, 'wheel_end': 360, 'data_path': '../data/', 'participant_id': 'lc', 'recall_stim_type': None, 'response_type': 'wheel', 'match_stim_type': 'color', 'nb_stim_total': 45, 'nb_stim_per_trial': 45, 'nb_parity': 0, 'fullscreen': True, 'color_to_text_filename': '', 'session_id': 'lc_1752174850'}",
,,142.6459228999447,154.9164059938091,152.0,0,lc,lc_1752174850,None,wheel,color,"{'maintenance_time': 2.0, 'circle_size': 300, 'nb_segments': 360, 'outer_radius': 200, 'inner_radius': 150, 'wheel_beginning': 0, 'wheel_end': 360, 'data_path': '../data/', 'participant_id': 'lc', 'recall_stim_type': None, 'response_type': 'wheel', 'match_stim_type': 'color', 'nb_stim_total': 45, 'nb_stim_per_trial': 45, 'nb_parity': 0, 'fullscreen': True, 'color_to_text_filename': '', 'session_id': 'lc_1752174850'}",
,,159.17904469999485,139.1665048855487,136.0,0,lc,lc_1752174850,None,wheel,color,"{'maintenance_time': 2.0, 'circle_size': 300, 'nb_segments': 360, 'outer_radius': 200, 'inner_radius': 150, 'wheel_beginning': 0, 'wheel_end': 360, 'data_path': '../data/', 'participant_id': 'lc', 'recall_stim_type': None, 'response_type': 'wheel', 'match_stim_type': 'color', 'nb_stim_total': 45, 'nb_stim_per_trial': 45, 'nb_parity': 0, 'fullscreen': True, 'color_to_text_filename': '', 'session_id': 'lc_1752174850'}",
,,173.76483090000693,332.67250246882986,328.0,0,lc,lc_1752174850,None,wheel,color,"{'maintenance_time': 2.0, 'circle_size': 300, 'nb_segments': 360, 'outer_radius': 200, 'inner_radius': 150, 'wheel_beginning': 0, 'wheel_end': 360, 'data_path': '../data/', 'participant_id': 'lc', 'recall_stim_type': None, 'response_type': 'wheel', 'match_stim_type': 'color', 'nb_stim_total': 45, 'nb_stim_per_trial': 45, 'nb_parity': 0, 'fullscreen': True, 'color_to_text_filename': '', 'session_id': 'lc_1752174850'}",
,,183.0737862000242,181.096436083993,184.0,0,lc,lc_1752174850,None,wheel,color,"{'maintenance_time': 2.0, 'circle_size': 300, 'nb_segments': 360, 'outer_radius': 200, 'inner_radius': 150, 'wheel_beginning': 0, 'wheel_end': 360, 'data_path': '../data/', 'participant_id': 'lc', 'recall_stim_type': None, 'response_type': 'wheel', 'match_stim_type': 'color', 'nb_stim_total': 45, 'nb_stim_per_trial': 45, 'nb_parity': 0, 'fullscreen': True, 'color_to_text_filename': '', 'session_id': 'lc_1752174850'}",
,,199.00796269997954,54.286927512496995,64.0,0,lc,lc_1752174850,None,wheel,color,"{'maintenance_time': 2.0, 'circle_size': 300, 'nb_segments': 360, 'outer_radius': 200, 'inner_radius': 150, 'wheel_beginning': 0, 'wheel_end': 360, 'data_path': '../data/', 'participant_id': 'lc', 'recall_stim_type': None, 'response_type': 'wheel', 'match_stim_type': 'color', 'nb_stim_total': 45, 'nb_stim_per_trial': 45, 'nb_parity': 0, 'fullscreen': True, 'color_to_text_filename': '', 'session_id': 'lc_1752174850'}",
,,214.87903269997332,230.97432328648063,232.0,0,lc,lc_1752174850,None,wheel,color,"{'maintenance_time': 2.0, 'circle_size': 300, 'nb_segments': 360, 'outer_radius': 200, 'inner_radius': 150, 'wheel_beginning': 0, 'wheel_end': 360, 'data_path': '../data/', 'participant_id': 'lc', 'recall_stim_type': None, 'response_type': 'wheel', 'match_stim_type': 'color', 'nb_stim_total': 45, 'nb_stim_per_trial': 45, 'nb_parity': 0, 'fullscreen': True, 'color_to_text_filename': '', 'session_id': 'lc_1752174850'}",
,,234.2733193000313,320.3454453727671,312.0,0,lc,lc_1752174850,None,wheel,color,"{'maintenance_time': 2.0, 'circle_size': 300, 'nb_segments': 360, 'outer_radius': 200, 'inner_radius': 150, 'wheel_beginning': 0, 'wheel_end': 360, 'data_path': '../data/', 'participant_id': 'lc', 'recall_stim_type': None, 'response_type': 'wheel', 'match_stim_type': 'color', 'nb_stim_total': 45, 'nb_stim_per_trial': 45, 'nb_parity': 0, 'fullscreen': True, 'color_to_text_filename': '', 'session_id': 'lc_1752174850'}",
,,245.87206730002072,355.1516952316051,0.0,0,lc,lc_1752174850,None,wheel,color,"{'maintenance_time': 2.0, 'circle_size': 300, 'nb_segments': 360, 'outer_radius': 200, 'inner_radius': 150, 'wheel_beginning': 0, 'wheel_end': 360, 'data_path': '../data/', 'participant_id': 'lc', 'recall_stim_type': None, 'response_type': 'wheel', 'match_stim_type': 'color', 'nb_stim_total': 45, 'nb_stim_per_trial': 45, 'nb_parity': 0, 'fullscreen': True, 'color_to_text_filename': '', 'session_id': 'lc_1752174850'}",
,,260.8205754000228,345.1317186415018,344.0,0,lc,lc_1752174850,None,wheel,color,"{'maintenance_time': 2.0, 'circle_size': 300, 'nb_segments': 360, 'outer_radius': 200, 'inner_radius': 150, 'wheel_beginning': 0, 'wheel_end': 360, 'data_path': '../data/', 'participant_id': 'lc', 'recall_stim_type': None, 'response_type': 'wheel', 'match_stim_type': 'color', 'nb_stim_total': 45, 'nb_stim_per_trial': 45, 'nb_parity': 0, 'fullscreen': True, 'color_to_text_filename': '', 'session_id': 'lc_1752174850'}",
,,276.70073859998956,12.761926682996691,16.0,0,lc,lc_1752174850,None,wheel,color,"{'maintenance_time': 2.0, 'circle_size': 300, 'nb_segments': 360, 'outer_radius': 200, 'inner_radius': 150, 'wheel_beginning': 0, 'wheel_end': 360, 'data_path': '../data/', 'participant_id': 'lc', 'recall_stim_type': None, 'response_type': 'wheel', 'match_stim_type': 'color', 'nb_stim_total': 45, 'nb_stim_per_trial': 45, 'nb_parity': 0, 'fullscreen': True, 'color_to_text_filename': '', 'session_id': 'lc_1752174850'}",
,,291.1595484999707,113.85554410668438,120.0,0,lc,lc_1752174850,None,wheel,color,"{'maintenance_time': 2.0, 'circle_size': 300, 'nb_segments': 360, 'outer_radius': 200, 'inner_radius': 150, 'wheel_beginning': 0, 'wheel_end': 360, 'data_path': '../data/', 'participant_id': 'lc', 'recall_stim_type': None, 'response_type': 'wheel', 'match_stim_type': 'color', 'nb_stim_total': 45, 'nb_stim_per_trial': 45, 'nb_parity': 0, 'fullscreen': True, 'color_to_text_filename': '', 'session_id': 'lc_1752174850'}",
,,306.258782699937,357.4324026708122,352.0,0,lc,lc_1752174850,None,wheel,color,"{'maintenance_time': 2.0, 'circle_size': 300, 'nb_segments': 360, 'outer_radius': 200, 'inner_radius': 150, 'wheel_beginning': 0, 'wheel_end': 360, 'data_path': '../data/', 'participant_id': 'lc', 'recall_stim_type': None, 'response_type': 'wheel', 'match_stim_type': 'color', 'nb_stim_total': 45, 'nb_stim_per_trial': 45, 'nb_parity': 0, 'fullscreen': True, 'color_to_text_filename': '', 'session_id': 'lc_1752174850'}",
,,317.82277780002914,43.48258587498787,48.0,0,lc,lc_1752174850,None,wheel,color,"{'maintenance_time': 2.0, 'circle_size': 300, 'nb_segments': 360, 'outer_radius': 200, 'inner_radius': 150, 'wheel_beginning': 0, 'wheel_end': 360, 'data_path': '../data/', 'participant_id': 'lc', 'recall_stim_type': None, 'response_type': 'wheel', 'match_stim_type': 'color', 'nb_stim_total': 45, 'nb_stim_per_trial': 45, 'nb_parity': 0, 'fullscreen': True, 'color_to_text_filename': '', 'session_id': 'lc_1752174850'}",
,,337.15884279995225,272.6384918254112,280.0,0,lc,lc_1752174850,None,wheel,color,"{'maintenance_time': 2.0, 'circle_size': 300, 'nb_segments': 360, 'outer_radius': 200, 'inner_radius': 150, 'wheel_beginning': 0, 'wheel_end': 360, 'data_path': '../data/', 'participant_id': 'lc', 'recall_stim_type': None, 'response_type': 'wheel', 'match_stim_type': 'color', 'nb_stim_total': 45, 'nb_stim_per_trial': 45, 'nb_parity': 0, 'fullscreen': True, 'color_to_text_filename': '', 'session_id': 'lc_1752174850'}",
,,369.5099811999826,295.4633450618716,296.0,0,lc,lc_1752174850,None,wheel,color,"{'maintenance_time': 2.0, 'circle_size': 300, 'nb_segments': 360, 'outer_radius': 200, 'inner_radius': 150, 'wheel_beginning': 0, 'wheel_end': 360, 'data_path': '../data/', 'participant_id': 'lc', 'recall_stim_type': None, 'response_type': 'wheel', 'match_stim_type': 'color', 'nb_stim_total': 45, 'nb_stim_per_trial': 45, 'nb_parity': 0, 'fullscreen': True, 'color_to_text_filename': '', 'session_id': 'lc_1752174850'}",
,,383.2411597999744,216.5730309785193,216.0,0,lc,lc_1752174850,None,wheel,color,"{'maintenance_time': 2.0, 'circle_size': 300, 'nb_segments': 360, 'outer_radius': 200, 'inner_radius': 150, 'wheel_beginning': 0, 'wheel_end': 360, 'data_path': '../data/', 'participant_id': 'lc', 'recall_stim_type': None, 'response_type': 'wheel', 'match_stim_type': 'color', 'nb_stim_total': 45, 'nb_stim_per_trial': 45, 'nb_parity': 0, 'fullscreen': True, 'color_to_text_filename': '', 'session_id': 'lc_1752174850'}",
,,402.67413149995264,106.67384717026998,104.0,0,lc,lc_1752174850,None,wheel,color,"{'maintenance_time': 2.0, 'circle_size': 300, 'nb_segments': 360, 'outer_radius': 200, 'inner_radius': 150, 'wheel_beginning': 0, 'wheel_end': 360, 'data_path': '../data/', 'participant_id': 'lc', 'recall_stim_type': None, 'response_type': 'wheel', 'match_stim_type': 'color', 'nb_stim_total': 45, 'nb_stim_per_trial': 45, 'nb_parity': 0, 'fullscreen': True, 'color_to_text_filename': '', 'session_id': 'lc_1752174850'}",
,,417.3006216000067,91.8476102659946,88.0,0,lc,lc_1752174850,None,wheel,color,"{'maintenance_time': 2.0, 'circle_size': 300, 'nb_segments': 360, 'outer_radius': 200, 'inner_radius': 150, 'wheel_beginning': 0, 'wheel_end': 360, 'data_path': '../data/', 'participant_id': 'lc', 'recall_stim_type': None, 'response_type': 'wheel', 'match_stim_type': 'color', 'nb_stim_total': 45, 'nb_stim_per_trial': 45, 'nb_parity': 0, 'fullscreen': True, 'color_to_text_filename': '', 'session_id': 'lc_1752174850'}",
,,428.6192263000412,93.23970029610213,96.0,0,lc,lc_1752174850,None,wheel,color,"{'maintenance_time': 2.0, 'circle_size': 300, 'nb_segments': 360, 'outer_radius': 200, 'inner_radius': 150, 'wheel_beginning': 0, 'wheel_end': 360, 'data_path': '../data/', 'participant_id': 'lc', 'recall_stim_type': None, 'response_type': 'wheel', 'match_stim_type': 'color', 'nb_stim_total': 45, 'nb_stim_per_trial': 45, 'nb_parity': 0, 'fullscreen': True, 'color_to_text_filename': '', 'session_id': 'lc_1752174850'}",
,,442.1249570000218,33.84005613496724,32.0,0,lc,lc_1752174850,None,wheel,color,"{'maintenance_time': 2.0, 'circle_size': 300, 'nb_segments': 360, 'outer_radius': 200, 'inner_radius': 150, 'wheel_beginning': 0, 'wheel_end': 360, 'data_path': '../data/', 'participant_id': 'lc', 'recall_stim_type': None, 'response_type': 'wheel', 'match_stim_type': 'color', 'nb_stim_total': 45, 'nb_stim_per_trial': 45, 'nb_parity': 0, 'fullscreen': True, 'color_to_text_filename': '', 'session_id': 'lc_1752174850'}",
,,454.4427091999678,185.28124062844512,176.0,0,lc,lc_1752174850,None,wheel,color,"{'maintenance_time': 2.0, 'circle_size': 300, 'nb_segments': 360, 'outer_radius': 200, 'inner_radius': 150, 'wheel_beginning': 0, 'wheel_end': 360, 'data_path': '../data/', 'participant_id': 'lc', 'recall_stim_type': None, 'response_type': 'wheel', 'match_stim_type': 'color', 'nb_stim_total': 45, 'nb_stim_per_trial': 45, 'nb_parity': 0, 'fullscreen': True, 'color_to_text_filename': '', 'session_id': 'lc_1752174850'}",
,,468.0992188999662,23.26770481005695,24.0,0,lc,lc_1752174850,None,wheel,color,"{'maintenance_time': 2.0, 'circle_size': 300, 'nb_segments': 360, 'outer_radius': 200, 'inner_radius': 150, 'wheel_beginning': 0, 'wheel_end': 360, 'data_path': '../data/', 'participant_id': 'lc', 'recall_stim_type': None, 'response_type': 'wheel', 'match_stim_type': 'color', 'nb_stim_total': 45, 'nb_stim_per_trial': 45, 'nb_parity': 0, 'fullscreen': True, 'color_to_text_filename': '', 'session_id': 'lc_1752174850'}",
,,482.5030110999942,38.911471845804826,40.0,0,lc,lc_1752174850,None,wheel,color,"{'maintenance_time': 2.0, 'circle_size': 300, 'nb_segments': 360, 'outer_radius': 200, 'inner_radius': 150, 'wheel_beginning': 0, 'wheel_end': 360, 'data_path': '../data/', 'participant_id': 'lc', 'recall_stim_type': None, 'response_type': 'wheel', 'match_stim_type': 'color', 'nb_stim_total': 45, 'nb_stim_per_trial': 45, 'nb_parity': 0, 'fullscreen': True, 'color_to_text_filename': '', 'session_id': 'lc_1752174850'}",
,,492.4195355999982,259.1144729453413,264.0,0,lc,lc_1752174850,None,wheel,color,"{'maintenance_time': 2.0, 'circle_size': 300, 'nb_segments': 360, 'outer_radius': 200, 'inner_radius': 150, 'wheel_beginning': 0, 'wheel_end': 360, 'data_path': '../data/', 'participant_id': 'lc', 'recall_stim_type': None, 'response_type': 'wheel', 'match_stim_type': 'color', 'nb_stim_total': 45, 'nb_stim_per_trial': 45, 'nb_parity': 0, 'fullscreen': True, 'color_to_text_filename': '', 'session_id': 'lc_1752174850'}",
,,502.3340584000107,144.4940298857589,144.0,0,lc,lc_1752174850,None,wheel,color,"{'maintenance_time': 2.0, 'circle_size': 300, 'nb_segments': 360, 'outer_radius': 200, 'inner_radius': 150, 'wheel_beginning': 0, 'wheel_end': 360, 'data_path': '../data/', 'participant_id': 'lc', 'recall_stim_type': None, 'response_type': 'wheel', 'match_stim_type': 'color', 'nb_stim_total': 45, 'nb_stim_per_trial': 45, 'nb_parity': 0, 'fullscreen': True, 'color_to_text_filename': '', 'session_id': 'lc_1752174850'}",
,,521.705926100025,221.75386631300722,224.0,0,lc,lc_1752174850,None,wheel,color,"{'maintenance_time': 2.0, 'circle_size': 300, 'nb_segments': 360, 'outer_radius': 200, 'inner_radius': 150, 'wheel_beginning': 0, 'wheel_end': 360, 'data_path': '../data/', 'participant_id': 'lc', 'recall_stim_type': None, 'response_type': 'wheel', 'match_stim_type': 'color', 'nb_stim_total': 45, 'nb_stim_per_trial': 45, 'nb_parity': 0, 'fullscreen': True, 'color_to_text_filename': '', 'session_id': 'lc_1752174850'}",
,,535.4190307999961,194.51669995885464,192.0,0,lc,lc_1752174850,None,wheel,color,"{'maintenance_time': 2.0, 'circle_size': 300, 'nb_segments': 360, 'outer_radius': 200, 'inner_radius': 150, 'wheel_beginning': 0, 'wheel_end': 360, 'data_path': '../data/', 'participant_id': 'lc', 'recall_stim_type': None, 'response_type': 'wheel', 'match_stim_type': 'color', 'nb_stim_total': 45, 'nb_stim_per_trial': 45, 'nb_parity': 0, 'fullscreen': True, 'color_to_text_filename': '', 'session_id': 'lc_1752174850'}",
,,548.5621762999799,234.11786275379578,248.0,0,lc,lc_1752174850,None,wheel,color,"{'maintenance_time': 2.0, 'circle_size': 300, 'nb_segments': 360, 'outer_radius': 200, 'inner_radius': 150, 'wheel_beginning': 0, 'wheel_end': 360, 'data_path': '../data/', 'participant_id': 'lc', 'recall_stim_type': None, 'response_type': 'wheel', 'match_stim_type': 'color', 'nb_stim_total': 45, 'nb_stim_per_trial': 45, 'nb_parity': 0, 'fullscreen': True, 'color_to_text_filename': '', 'session_id': 'lc_1752174850'}",
,,559.2460002000444,168.30228475331424,168.0,0,lc,lc_1752174850,None,wheel,color,"{'maintenance_time': 2.0, 'circle_size': 300, 'nb_segments': 360, 'outer_radius': 200, 'inner_radius': 150, 'wheel_beginning': 0, 'wheel_end': 360, 'data_path': '../data/', 'participant_id': 'lc', 'recall_stim_type': None, 'response_type': 'wheel', 'match_stim_type': 'color', 'nb_stim_total': 45, 'nb_stim_per_trial': 45, 'nb_parity': 0, 'fullscreen': True, 'color_to_text_filename': '', 'session_id': 'lc_1752174850'}",
,,583.223988099955,304.09497795476557,304.0,0,lc,lc_1752174850,None,wheel,color,"{'maintenance_time': 2.0, 'circle_size': 300, 'nb_segments': 360, 'outer_radius': 200, 'inner_radius': 150, 'wheel_beginning': 0, 'wheel_end': 360, 'data_path': '../data/', 'participant_id': 'lc', 'recall_stim_type': None, 'response_type': 'wheel', 'match_stim_type': 'color', 'nb_stim_total': 45, 'nb_stim_per_trial': 45, 'nb_parity': 0, 'fullscreen': True, 'color_to_text_filename': '', 'session_id': 'lc_1752174850'}",
,,604.2347824999597,108.78324714358077,112.0,0,lc,lc_1752174850,None,wheel,color,"{'maintenance_time': 2.0, 'circle_size': 300, 'nb_segments': 360, 'outer_radius': 200, 'inner_radius': 150, 'wheel_beginning': 0, 'wheel_end': 360, 'data_path': '../data/', 'participant_id': 'lc', 'recall_stim_type': None, 'response_type': 'wheel', 'match_stim_type': 'color', 'nb_stim_total': 45, 'nb_stim_per_trial': 45, 'nb_parity': 0, 'fullscreen': True, 'color_to_text_filename': '', 'session_id': 'lc_1752174850'}",
,,618.1008838999551,72.91691305263723,72.0,0,lc,lc_1752174850,None,wheel,color,"{'maintenance_time': 2.0, 'circle_size': 300, 'nb_segments': 360, 'outer_radius': 200, 'inner_radius': 150, 'wheel_beginning': 0, 'wheel_end': 360, 'data_path': '../data/', 'participant_id': 'lc', 'recall_stim_type': None, 'response_type': 'wheel', 'match_stim_type': 'color', 'nb_stim_total': 45, 'nb_stim_per_trial': 45, 'nb_parity': 0, 'fullscreen': True, 'color_to_text_filename': '', 'session_id': 'lc_1752174850'}",
,,629.4589946999913,201.60552724263846,200.0,0,lc,lc_1752174850,None,wheel,color,"{'maintenance_time': 2.0, 'circle_size': 300, 'nb_segments': 360, 'outer_radius': 200, 'inner_radius': 150, 'wheel_beginning': 0, 'wheel_end': 360, 'data_path': '../data/', 'participant_id': 'lc', 'recall_stim_type': None, 'response_type': 'wheel', 'match_stim_type': 'color', 'nb_stim_total': 45, 'nb_stim_per_trial': 45, 'nb_parity': 0, 'fullscreen': True, 'color_to_text_filename': '', 'session_id': 'lc_1752174850'}",
,,649.4357820999576,283.9247732204094,288.0,0,lc,lc_1752174850,None,wheel,color,"{'maintenance_time': 2.0, 'circle_size': 300, 'nb_segments': 360, 'outer_radius': 200, 'inner_radius': 150, 'wheel_beginning': 0, 'wheel_end': 360, 'data_path': '../data/', 'participant_id': 'lc', 'recall_stim_type': None, 'response_type': 'wheel', 'match_stim_type': 'color', 'nb_stim_total': 45, 'nb_stim_per_trial': 45, 'nb_parity': 0, 'fullscreen': True, 'color_to_text_filename': '', 'session_id': 'lc_1752174850'}",
,,663.4243632999714,268.2259191411821,272.0,0,lc,lc_1752174850,None,wheel,color,"{'maintenance_time': 2.0, 'circle_size': 300, 'nb_segments': 360, 'outer_radius': 200, 'inner_radius': 150, 'wheel_beginning': 0, 'wheel_end': 360, 'data_path': '../data/', 'participant_id': 'lc', 'recall_stim_type': None, 'response_type': 'wheel', 'match_stim_type': 'color', 'nb_stim_total': 45, 'nb_stim_per_trial': 45, 'nb_parity': 0, 'fullscreen': True, 'color_to_text_filename': '', 'session_id': 'lc_1752174850'}",
,,675.8583548000315,83.8298249049704,80.0,0,lc,lc_1752174850,None,wheel,color,"{'maintenance_time': 2.0, 'circle_size': 300, 'nb_segments': 360, 'outer_radius': 200, 'inner_radius': 150, 'wheel_beginning': 0, 'wheel_end': 360, 'data_path': '../data/', 'participant_id': 'lc', 'recall_stim_type': None, 'response_type': 'wheel', 'match_stim_type': 'color', 'nb_stim_total': 45, 'nb_stim_per_trial': 45, 'nb_parity': 0, 'fullscreen': True, 'color_to_text_filename': '', 'session_id': 'lc_1752174850'}",
