thisRow.t,notes,onset,response,stim,sequence_position,participant_id,session_id,recall_stim_type,response_type,match_stim_type,parameters,
,,22.809568600030616,322,320.0,0,lc,lc_1752184189,text,squares,None,"{'maintenance_time': 2.0, 'circle_size': 300, 'nb_segments': 360, 'outer_radius': 200, 'inner_radius': 150, 'wheel_beginning': 0, 'wheel_end': 360, 'data_path': '../data/', 'participant_id': 'lc', 'recall_stim_type': 'text', 'response_type': 'squares', 'match_stim_type': None, 'nb_stim_total': 45, 'nb_stim_per_trial': 1, 'nb_parity': 0, 'fullscreen': False, 'color_to_text_filename': '', 'session_id': 'lc_1752184189'}",
,,53.26096280000638,254,232.0,0,lc,lc_1752184189,text,squares,None,"{'maintenance_time': 2.0, 'circle_size': 300, 'nb_segments': 360, 'outer_radius': 200, 'inner_radius': 150, 'wheel_beginning': 0, 'wheel_end': 360, 'data_path': '../data/', 'participant_id': 'lc', 'recall_stim_type': 'text', 'response_type': 'squares', 'match_stim_type': None, 'nb_stim_total': 45, 'nb_stim_per_trial': 1, 'nb_parity': 0, 'fullscreen': False, 'color_to_text_filename': '', 'session_id': 'lc_1752184189'}",
,,72.93178710003849,47,40.0,0,lc,lc_1752184189,text,squares,None,"{'maintenance_time': 2.0, 'circle_size': 300, 'nb_segments': 360, 'outer_radius': 200, 'inner_radius': 150, 'wheel_beginning': 0, 'wheel_end': 360, 'data_path': '../data/', 'participant_id': 'lc', 'recall_stim_type': 'text', 'response_type': 'squares', 'match_stim_type': None, 'nb_stim_total': 45, 'nb_stim_per_trial': 1, 'nb_parity': 0, 'fullscreen': False, 'color_to_text_filename': '', 'session_id': 'lc_1752184189'}",
,,91.04386670002714,290,256.0,0,lc,lc_1752184189,text,squares,None,"{'maintenance_time': 2.0, 'circle_size': 300, 'nb_segments': 360, 'outer_radius': 200, 'inner_radius': 150, 'wheel_beginning': 0, 'wheel_end': 360, 'data_path': '../data/', 'participant_id': 'lc', 'recall_stim_type': 'text', 'response_type': 'squares', 'match_stim_type': None, 'nb_stim_total': 45, 'nb_stim_per_trial': 1, 'nb_parity': 0, 'fullscreen': False, 'color_to_text_filename': '', 'session_id': 'lc_1752184189'}",
,,110.41061380004976,344.0,344.0,0,lc,lc_1752184189,text,squares,None,"{'maintenance_time': 2.0, 'circle_size': 300, 'nb_segments': 360, 'outer_radius': 200, 'inner_radius': 150, 'wheel_beginning': 0, 'wheel_end': 360, 'data_path': '../data/', 'participant_id': 'lc', 'recall_stim_type': 'text', 'response_type': 'squares', 'match_stim_type': None, 'nb_stim_total': 45, 'nb_stim_per_trial': 1, 'nb_parity': 0, 'fullscreen': False, 'color_to_text_filename': '', 'session_id': 'lc_1752184189'}",
,,142.46091120003257,144.0,144.0,0,lc,lc_1752184189,text,squares,None,"{'maintenance_time': 2.0, 'circle_size': 300, 'nb_segments': 360, 'outer_radius': 200, 'inner_radius': 150, 'wheel_beginning': 0, 'wheel_end': 360, 'data_path': '../data/', 'participant_id': 'lc', 'recall_stim_type': 'text', 'response_type': 'squares', 'match_stim_type': None, 'nb_stim_total': 45, 'nb_stim_per_trial': 1, 'nb_parity': 0, 'fullscreen': False, 'color_to_text_filename': '', 'session_id': 'lc_1752184189'}",
,,160.0461677000858,10,16.0,0,lc,lc_1752184189,text,squares,None,"{'maintenance_time': 2.0, 'circle_size': 300, 'nb_segments': 360, 'outer_radius': 200, 'inner_radius': 150, 'wheel_beginning': 0, 'wheel_end': 360, 'data_path': '../data/', 'participant_id': 'lc', 'recall_stim_type': 'text', 'response_type': 'squares', 'match_stim_type': None, 'nb_stim_total': 45, 'nb_stim_per_trial': 1, 'nb_parity': 0, 'fullscreen': False, 'color_to_text_filename': '', 'session_id': 'lc_1752184189'}",
,,179.59502480004448,168,184.0,0,lc,lc_1752184189,text,squares,None,"{'maintenance_time': 2.0, 'circle_size': 300, 'nb_segments': 360, 'outer_radius': 200, 'inner_radius': 150, 'wheel_beginning': 0, 'wheel_end': 360, 'data_path': '../data/', 'participant_id': 'lc', 'recall_stim_type': 'text', 'response_type': 'squares', 'match_stim_type': None, 'nb_stim_total': 45, 'nb_stim_per_trial': 1, 'nb_parity': 0, 'fullscreen': False, 'color_to_text_filename': '', 'session_id': 'lc_1752184189'}",
,,195.31304820009973,99,104.0,0,lc,lc_1752184189,text,squares,None,"{'maintenance_time': 2.0, 'circle_size': 300, 'nb_segments': 360, 'outer_radius': 200, 'inner_radius': 150, 'wheel_beginning': 0, 'wheel_end': 360, 'data_path': '../data/', 'participant_id': 'lc', 'recall_stim_type': 'text', 'response_type': 'squares', 'match_stim_type': None, 'nb_stim_total': 45, 'nb_stim_per_trial': 1, 'nb_parity': 0, 'fullscreen': False, 'color_to_text_filename': '', 'session_id': 'lc_1752184189'}",
,,219.68405949999578,138,152.0,0,lc,lc_1752184189,text,squares,None,"{'maintenance_time': 2.0, 'circle_size': 300, 'nb_segments': 360, 'outer_radius': 200, 'inner_radius': 150, 'wheel_beginning': 0, 'wheel_end': 360, 'data_path': '../data/', 'participant_id': 'lc', 'recall_stim_type': 'text', 'response_type': 'squares', 'match_stim_type': None, 'nb_stim_total': 45, 'nb_stim_per_trial': 1, 'nb_parity': 0, 'fullscreen': False, 'color_to_text_filename': '', 'session_id': 'lc_1752184189'}",
,,236.81390120007563,288,272.0,0,lc,lc_1752184189,text,squares,None,"{'maintenance_time': 2.0, 'circle_size': 300, 'nb_segments': 360, 'outer_radius': 200, 'inner_radius': 150, 'wheel_beginning': 0, 'wheel_end': 360, 'data_path': '../data/', 'participant_id': 'lc', 'recall_stim_type': 'text', 'response_type': 'squares', 'match_stim_type': None, 'nb_stim_total': 45, 'nb_stim_per_trial': 1, 'nb_parity': 0, 'fullscreen': False, 'color_to_text_filename': '', 'session_id': 'lc_1752184189'}",
,,253.08110440010205,268,296.0,0,lc,lc_1752184189,text,squares,None,"{'maintenance_time': 2.0, 'circle_size': 300, 'nb_segments': 360, 'outer_radius': 200, 'inner_radius': 150, 'wheel_beginning': 0, 'wheel_end': 360, 'data_path': '../data/', 'participant_id': 'lc', 'recall_stim_type': 'text', 'response_type': 'squares', 'match_stim_type': None, 'nb_stim_total': 45, 'nb_stim_per_trial': 1, 'nb_parity': 0, 'fullscreen': False, 'color_to_text_filename': '', 'session_id': 'lc_1752184189'}",
,,271.9307716001058,282,280.0,0,lc,lc_1752184189,text,squares,None,"{'maintenance_time': 2.0, 'circle_size': 300, 'nb_segments': 360, 'outer_radius': 200, 'inner_radius': 150, 'wheel_beginning': 0, 'wheel_end': 360, 'data_path': '../data/', 'participant_id': 'lc', 'recall_stim_type': 'text', 'response_type': 'squares', 'match_stim_type': None, 'nb_stim_total': 45, 'nb_stim_per_trial': 1, 'nb_parity': 0, 'fullscreen': False, 'color_to_text_filename': '', 'session_id': 'lc_1752184189'}",
,,301.9474835000001,355,336.0,0,lc,lc_1752184189,text,squares,None,"{'maintenance_time': 2.0, 'circle_size': 300, 'nb_segments': 360, 'outer_radius': 200, 'inner_radius': 150, 'wheel_beginning': 0, 'wheel_end': 360, 'data_path': '../data/', 'participant_id': 'lc', 'recall_stim_type': 'text', 'response_type': 'squares', 'match_stim_type': None, 'nb_stim_total': 45, 'nb_stim_per_trial': 1, 'nb_parity': 0, 'fullscreen': False, 'color_to_text_filename': '', 'session_id': 'lc_1752184189'}",
,,319.5139767000219,54,48.0,0,lc,lc_1752184189,text,squares,None,"{'maintenance_time': 2.0, 'circle_size': 300, 'nb_segments': 360, 'outer_radius': 200, 'inner_radius': 150, 'wheel_beginning': 0, 'wheel_end': 360, 'data_path': '../data/', 'participant_id': 'lc', 'recall_stim_type': 'text', 'response_type': 'squares', 'match_stim_type': None, 'nb_stim_total': 45, 'nb_stim_per_trial': 1, 'nb_parity': 0, 'fullscreen': False, 'color_to_text_filename': '', 'session_id': 'lc_1752184189'}",
,,332.28149720001966,200.0,200.0,0,lc,lc_1752184189,text,squares,None,"{'maintenance_time': 2.0, 'circle_size': 300, 'nb_segments': 360, 'outer_radius': 200, 'inner_radius': 150, 'wheel_beginning': 0, 'wheel_end': 360, 'data_path': '../data/', 'participant_id': 'lc', 'recall_stim_type': 'text', 'response_type': 'squares', 'match_stim_type': None, 'nb_stim_total': 45, 'nb_stim_per_trial': 1, 'nb_parity': 0, 'fullscreen': False, 'color_to_text_filename': '', 'session_id': 'lc_1752184189'}",
,,340.9148563001072,150,160.0,0,lc,lc_1752184189,text,squares,None,"{'maintenance_time': 2.0, 'circle_size': 300, 'nb_segments': 360, 'outer_radius': 200, 'inner_radius': 150, 'wheel_beginning': 0, 'wheel_end': 360, 'data_path': '../data/', 'participant_id': 'lc', 'recall_stim_type': 'text', 'response_type': 'squares', 'match_stim_type': None, 'nb_stim_total': 45, 'nb_stim_per_trial': 1, 'nb_parity': 0, 'fullscreen': False, 'color_to_text_filename': '', 'session_id': 'lc_1752184189'}",
,,356.2997675000224,178,168.0,0,lc,lc_1752184189,text,squares,None,"{'maintenance_time': 2.0, 'circle_size': 300, 'nb_segments': 360, 'outer_radius': 200, 'inner_radius': 150, 'wheel_beginning': 0, 'wheel_end': 360, 'data_path': '../data/', 'participant_id': 'lc', 'recall_stim_type': 'text', 'response_type': 'squares', 'match_stim_type': None, 'nb_stim_total': 45, 'nb_stim_per_trial': 1, 'nb_parity': 0, 'fullscreen': False, 'color_to_text_filename': '', 'session_id': 'lc_1752184189'}",
,,368.43303120008204,65,64.0,0,lc,lc_1752184189,text,squares,None,"{'maintenance_time': 2.0, 'circle_size': 300, 'nb_segments': 360, 'outer_radius': 200, 'inner_radius': 150, 'wheel_beginning': 0, 'wheel_end': 360, 'data_path': '../data/', 'participant_id': 'lc', 'recall_stim_type': 'text', 'response_type': 'squares', 'match_stim_type': None, 'nb_stim_total': 45, 'nb_stim_per_trial': 1, 'nb_parity': 0, 'fullscreen': False, 'color_to_text_filename': '', 'session_id': 'lc_1752184189'}",
,,381.9658138999948,292,264.0,0,lc,lc_1752184189,text,squares,None,"{'maintenance_time': 2.0, 'circle_size': 300, 'nb_segments': 360, 'outer_radius': 200, 'inner_radius': 150, 'wheel_beginning': 0, 'wheel_end': 360, 'data_path': '../data/', 'participant_id': 'lc', 'recall_stim_type': 'text', 'response_type': 'squares', 'match_stim_type': None, 'nb_stim_total': 45, 'nb_stim_per_trial': 1, 'nb_parity': 0, 'fullscreen': False, 'color_to_text_filename': '', 'session_id': 'lc_1752184189'}",
,,404.94857470004354,311,328.0,0,lc,lc_1752184189,text,squares,None,"{'maintenance_time': 2.0, 'circle_size': 300, 'nb_segments': 360, 'outer_radius': 200, 'inner_radius': 150, 'wheel_beginning': 0, 'wheel_end': 360, 'data_path': '../data/', 'participant_id': 'lc', 'recall_stim_type': 'text', 'response_type': 'squares', 'match_stim_type': None, 'nb_stim_total': 45, 'nb_stim_per_trial': 1, 'nb_parity': 0, 'fullscreen': False, 'color_to_text_filename': '', 'session_id': 'lc_1752184189'}",
,,415.01737930008676,173,176.0,0,lc,lc_1752184189,text,squares,None,"{'maintenance_time': 2.0, 'circle_size': 300, 'nb_segments': 360, 'outer_radius': 200, 'inner_radius': 150, 'wheel_beginning': 0, 'wheel_end': 360, 'data_path': '../data/', 'participant_id': 'lc', 'recall_stim_type': 'text', 'response_type': 'squares', 'match_stim_type': None, 'nb_stim_total': 45, 'nb_stim_per_trial': 1, 'nb_parity': 0, 'fullscreen': False, 'color_to_text_filename': '', 'session_id': 'lc_1752184189'}",
,,440.2326742000878,88.0,88.0,0,lc,lc_1752184189,text,squares,None,"{'maintenance_time': 2.0, 'circle_size': 300, 'nb_segments': 360, 'outer_radius': 200, 'inner_radius': 150, 'wheel_beginning': 0, 'wheel_end': 360, 'data_path': '../data/', 'participant_id': 'lc', 'recall_stim_type': 'text', 'response_type': 'squares', 'match_stim_type': None, 'nb_stim_total': 45, 'nb_stim_per_trial': 1, 'nb_parity': 0, 'fullscreen': False, 'color_to_text_filename': '', 'session_id': 'lc_1752184189'}",
,,451.9507176000625,220,216.0,0,lc,lc_1752184189,text,squares,None,"{'maintenance_time': 2.0, 'circle_size': 300, 'nb_segments': 360, 'outer_radius': 200, 'inner_radius': 150, 'wheel_beginning': 0, 'wheel_end': 360, 'data_path': '../data/', 'participant_id': 'lc', 'recall_stim_type': 'text', 'response_type': 'squares', 'match_stim_type': None, 'nb_stim_total': 45, 'nb_stim_per_trial': 1, 'nb_parity': 0, 'fullscreen': False, 'color_to_text_filename': '', 'session_id': 'lc_1752184189'}",
,,464.7006770001026,112.0,112.0,0,lc,lc_1752184189,text,squares,None,"{'maintenance_time': 2.0, 'circle_size': 300, 'nb_segments': 360, 'outer_radius': 200, 'inner_radius': 150, 'wheel_beginning': 0, 'wheel_end': 360, 'data_path': '../data/', 'participant_id': 'lc', 'recall_stim_type': 'text', 'response_type': 'squares', 'match_stim_type': None, 'nb_stim_total': 45, 'nb_stim_per_trial': 1, 'nb_parity': 0, 'fullscreen': False, 'color_to_text_filename': '', 'session_id': 'lc_1752184189'}",
,,491.4677030000603,254,248.0,0,lc,lc_1752184189,text,squares,None,"{'maintenance_time': 2.0, 'circle_size': 300, 'nb_segments': 360, 'outer_radius': 200, 'inner_radius': 150, 'wheel_beginning': 0, 'wheel_end': 360, 'data_path': '../data/', 'participant_id': 'lc', 'recall_stim_type': 'text', 'response_type': 'squares', 'match_stim_type': None, 'nb_stim_total': 45, 'nb_stim_per_trial': 1, 'nb_parity': 0, 'fullscreen': False, 'color_to_text_filename': '', 'session_id': 'lc_1752184189'}",
,,507.73483850003686,5,8.0,0,lc,lc_1752184189,text,squares,None,"{'maintenance_time': 2.0, 'circle_size': 300, 'nb_segments': 360, 'outer_radius': 200, 'inner_radius': 150, 'wheel_beginning': 0, 'wheel_end': 360, 'data_path': '../data/', 'participant_id': 'lc', 'recall_stim_type': 'text', 'response_type': 'squares', 'match_stim_type': None, 'nb_stim_total': 45, 'nb_stim_per_trial': 1, 'nb_parity': 0, 'fullscreen': False, 'color_to_text_filename': '', 'session_id': 'lc_1752184189'}",
,,519.3196292000357,68,72.0,0,lc,lc_1752184189,text,squares,None,"{'maintenance_time': 2.0, 'circle_size': 300, 'nb_segments': 360, 'outer_radius': 200, 'inner_radius': 150, 'wheel_beginning': 0, 'wheel_end': 360, 'data_path': '../data/', 'participant_id': 'lc', 'recall_stim_type': 'text', 'response_type': 'squares', 'match_stim_type': None, 'nb_stim_total': 45, 'nb_stim_per_trial': 1, 'nb_parity': 0, 'fullscreen': False, 'color_to_text_filename': '', 'session_id': 'lc_1752184189'}",
,,527.8680494000437,28,24.0,0,lc,lc_1752184189,text,squares,None,"{'maintenance_time': 2.0, 'circle_size': 300, 'nb_segments': 360, 'outer_radius': 200, 'inner_radius': 150, 'wheel_beginning': 0, 'wheel_end': 360, 'data_path': '../data/', 'participant_id': 'lc', 'recall_stim_type': 'text', 'response_type': 'squares', 'match_stim_type': None, 'nb_stim_total': 45, 'nb_stim_per_trial': 1, 'nb_parity': 0, 'fullscreen': False, 'color_to_text_filename': '', 'session_id': 'lc_1752184189'}",
,,542.786586000002,9,0.0,0,lc,lc_1752184189,text,squares,None,"{'maintenance_time': 2.0, 'circle_size': 300, 'nb_segments': 360, 'outer_radius': 200, 'inner_radius': 150, 'wheel_beginning': 0, 'wheel_end': 360, 'data_path': '../data/', 'participant_id': 'lc', 'recall_stim_type': 'text', 'response_type': 'squares', 'match_stim_type': None, 'nb_stim_total': 45, 'nb_stim_per_trial': 1, 'nb_parity': 0, 'fullscreen': False, 'color_to_text_filename': '', 'session_id': 'lc_1752184189'}",
,,552.1852780000772,144,136.0,0,lc,lc_1752184189,text,squares,None,"{'maintenance_time': 2.0, 'circle_size': 300, 'nb_segments': 360, 'outer_radius': 200, 'inner_radius': 150, 'wheel_beginning': 0, 'wheel_end': 360, 'data_path': '../data/', 'participant_id': 'lc', 'recall_stim_type': 'text', 'response_type': 'squares', 'match_stim_type': None, 'nb_stim_total': 45, 'nb_stim_per_trial': 1, 'nb_parity': 0, 'fullscreen': False, 'color_to_text_filename': '', 'session_id': 'lc_1752184189'}",
,,564.6355592000764,106,120.0,0,lc,lc_1752184189,text,squares,None,"{'maintenance_time': 2.0, 'circle_size': 300, 'nb_segments': 360, 'outer_radius': 200, 'inner_radius': 150, 'wheel_beginning': 0, 'wheel_end': 360, 'data_path': '../data/', 'participant_id': 'lc', 'recall_stim_type': 'text', 'response_type': 'squares', 'match_stim_type': None, 'nb_stim_total': 45, 'nb_stim_per_trial': 1, 'nb_parity': 0, 'fullscreen': False, 'color_to_text_filename': '', 'session_id': 'lc_1752184189'}",
,,578.4519879000727,286,288.0,0,lc,lc_1752184189,text,squares,None,"{'maintenance_time': 2.0, 'circle_size': 300, 'nb_segments': 360, 'outer_radius': 200, 'inner_radius': 150, 'wheel_beginning': 0, 'wheel_end': 360, 'data_path': '../data/', 'participant_id': 'lc', 'recall_stim_type': 'text', 'response_type': 'squares', 'match_stim_type': None, 'nb_stim_total': 45, 'nb_stim_per_trial': 1, 'nb_parity': 0, 'fullscreen': False, 'color_to_text_filename': '', 'session_id': 'lc_1752184189'}",
,,592.7363863000646,321,312.0,0,lc,lc_1752184189,text,squares,None,"{'maintenance_time': 2.0, 'circle_size': 300, 'nb_segments': 360, 'outer_radius': 200, 'inner_radius': 150, 'wheel_beginning': 0, 'wheel_end': 360, 'data_path': '../data/', 'participant_id': 'lc', 'recall_stim_type': 'text', 'response_type': 'squares', 'match_stim_type': None, 'nb_stim_total': 45, 'nb_stim_per_trial': 1, 'nb_parity': 0, 'fullscreen': False, 'color_to_text_filename': '', 'session_id': 'lc_1752184189'}",
,,605.7198005000828,238,240.0,0,lc,lc_1752184189,text,squares,None,"{'maintenance_time': 2.0, 'circle_size': 300, 'nb_segments': 360, 'outer_radius': 200, 'inner_radius': 150, 'wheel_beginning': 0, 'wheel_end': 360, 'data_path': '../data/', 'participant_id': 'lc', 'recall_stim_type': 'text', 'response_type': 'squares', 'match_stim_type': None, 'nb_stim_total': 45, 'nb_stim_per_trial': 1, 'nb_parity': 0, 'fullscreen': False, 'color_to_text_filename': '', 'session_id': 'lc_1752184189'}",
,,614.986934900051,23,32.0,0,lc,lc_1752184189,text,squares,None,"{'maintenance_time': 2.0, 'circle_size': 300, 'nb_segments': 360, 'outer_radius': 200, 'inner_radius': 150, 'wheel_beginning': 0, 'wheel_end': 360, 'data_path': '../data/', 'participant_id': 'lc', 'recall_stim_type': 'text', 'response_type': 'squares', 'match_stim_type': None, 'nb_stim_total': 45, 'nb_stim_per_trial': 1, 'nb_parity': 0, 'fullscreen': False, 'color_to_text_filename': '', 'session_id': 'lc_1752184189'}",
,,628.6032465000171,355,352.0,0,lc,lc_1752184189,text,squares,None,"{'maintenance_time': 2.0, 'circle_size': 300, 'nb_segments': 360, 'outer_radius': 200, 'inner_radius': 150, 'wheel_beginning': 0, 'wheel_end': 360, 'data_path': '../data/', 'participant_id': 'lc', 'recall_stim_type': 'text', 'response_type': 'squares', 'match_stim_type': None, 'nb_stim_total': 45, 'nb_stim_per_trial': 1, 'nb_parity': 0, 'fullscreen': False, 'color_to_text_filename': '', 'session_id': 'lc_1752184189'}",
,,643.3200881000375,77,96.0,0,lc,lc_1752184189,text,squares,None,"{'maintenance_time': 2.0, 'circle_size': 300, 'nb_segments': 360, 'outer_radius': 200, 'inner_radius': 150, 'wheel_beginning': 0, 'wheel_end': 360, 'data_path': '../data/', 'participant_id': 'lc', 'recall_stim_type': 'text', 'response_type': 'squares', 'match_stim_type': None, 'nb_stim_total': 45, 'nb_stim_per_trial': 1, 'nb_parity': 0, 'fullscreen': False, 'color_to_text_filename': '', 'session_id': 'lc_1752184189'}",
,,657.3374618000817,329,304.0,0,lc,lc_1752184189,text,squares,None,"{'maintenance_time': 2.0, 'circle_size': 300, 'nb_segments': 360, 'outer_radius': 200, 'inner_radius': 150, 'wheel_beginning': 0, 'wheel_end': 360, 'data_path': '../data/', 'participant_id': 'lc', 'recall_stim_type': 'text', 'response_type': 'squares', 'match_stim_type': None, 'nb_stim_total': 45, 'nb_stim_per_trial': 1, 'nb_parity': 0, 'fullscreen': False, 'color_to_text_filename': '', 'session_id': 'lc_1752184189'}",
,,665.4201563000679,63,56.0,0,lc,lc_1752184189,text,squares,None,"{'maintenance_time': 2.0, 'circle_size': 300, 'nb_segments': 360, 'outer_radius': 200, 'inner_radius': 150, 'wheel_beginning': 0, 'wheel_end': 360, 'data_path': '../data/', 'participant_id': 'lc', 'recall_stim_type': 'text', 'response_type': 'squares', 'match_stim_type': None, 'nb_stim_total': 45, 'nb_stim_per_trial': 1, 'nb_parity': 0, 'fullscreen': False, 'color_to_text_filename': '', 'session_id': 'lc_1752184189'}",
,,684.454735300038,201,192.0,0,lc,lc_1752184189,text,squares,None,"{'maintenance_time': 2.0, 'circle_size': 300, 'nb_segments': 360, 'outer_radius': 200, 'inner_radius': 150, 'wheel_beginning': 0, 'wheel_end': 360, 'data_path': '../data/', 'participant_id': 'lc', 'recall_stim_type': 'text', 'response_type': 'squares', 'match_stim_type': None, 'nb_stim_total': 45, 'nb_stim_per_trial': 1, 'nb_parity': 0, 'fullscreen': False, 'color_to_text_filename': '', 'session_id': 'lc_1752184189'}",
,,703.1227243000176,220,224.0,0,lc,lc_1752184189,text,squares,None,"{'maintenance_time': 2.0, 'circle_size': 300, 'nb_segments': 360, 'outer_radius': 200, 'inner_radius': 150, 'wheel_beginning': 0, 'wheel_end': 360, 'data_path': '../data/', 'participant_id': 'lc', 'recall_stim_type': 'text', 'response_type': 'squares', 'match_stim_type': None, 'nb_stim_total': 45, 'nb_stim_per_trial': 1, 'nb_parity': 0, 'fullscreen': False, 'color_to_text_filename': '', 'session_id': 'lc_1752184189'}",
,,719.988176700077,189,208.0,0,lc,lc_1752184189,text,squares,None,"{'maintenance_time': 2.0, 'circle_size': 300, 'nb_segments': 360, 'outer_radius': 200, 'inner_radius': 150, 'wheel_beginning': 0, 'wheel_end': 360, 'data_path': '../data/', 'participant_id': 'lc', 'recall_stim_type': 'text', 'response_type': 'squares', 'match_stim_type': None, 'nb_stim_total': 45, 'nb_stim_per_trial': 1, 'nb_parity': 0, 'fullscreen': False, 'color_to_text_filename': '', 'session_id': 'lc_1752184189'}",
,,733.4386400000658,91,80.0,0,lc,lc_1752184189,text,squares,None,"{'maintenance_time': 2.0, 'circle_size': 300, 'nb_segments': 360, 'outer_radius': 200, 'inner_radius': 150, 'wheel_beginning': 0, 'wheel_end': 360, 'data_path': '../data/', 'participant_id': 'lc', 'recall_stim_type': 'text', 'response_type': 'squares', 'match_stim_type': None, 'nb_stim_total': 45, 'nb_stim_per_trial': 1, 'nb_parity': 0, 'fullscreen': False, 'color_to_text_filename': '', 'session_id': 'lc_1752184189'}",
,,742.9727849001065,118,128.0,0,lc,lc_1752184189,text,squares,None,"{'maintenance_time': 2.0, 'circle_size': 300, 'nb_segments': 360, 'outer_radius': 200, 'inner_radius': 150, 'wheel_beginning': 0, 'wheel_end': 360, 'data_path': '../data/', 'participant_id': 'lc', 'recall_stim_type': 'text', 'response_type': 'squares', 'match_stim_type': None, 'nb_stim_total': 45, 'nb_stim_per_trial': 1, 'nb_parity': 0, 'fullscreen': False, 'color_to_text_filename': '', 'session_id': 'lc_1752184189'}",
