thisRow.t,notes,onset,response,stim,sequence_position,participant_id,session_id,recall_stim_type,response_type,match_stim_type,parameters,
,,42.0282471999526,mauve parfait,288.0,0,lc,lc_1752173265,None,text,color,"{'maintenance_time': 2.0, 'circle_size': 300, 'nb_segments': 360, 'outer_radius': 200, 'inner_radius': 150, 'wheel_beginning': 0, 'wheel_end': 360, 'data_path': '../data/', 'participant_id': 'lc', 'recall_stim_type': None, 'response_type': 'text', 'match_stim_type': 'color', 'nb_stim_total': 45, 'nb_stim_per_trial': 45, 'nb_parity': 0, 'fullscreen': True, 'color_to_text_filename': '', 'session_id': 'lc_1752173265'}",
,,57.7977274999721,bleu leger turquoise,208.0,0,lc,lc_1752173265,None,text,color,"{'maintenance_time': 2.0, 'circle_size': 300, 'nb_segments': 360, 'outer_radius': 200, 'inner_radius': 150, 'wheel_beginning': 0, 'wheel_end': 360, 'data_path': '../data/', 'participant_id': 'lc', 'recall_stim_type': None, 'response_type': 'text', 'match_stim_type': 'color', 'nb_stim_total': 45, 'nb_stim_per_trial': 45, 'nb_parity': 0, 'fullscreen': True, 'color_to_text_filename': '', 'session_id': 'lc_1752173265'}",
,,68.95207819994539,bleu moyen violet,232.0,0,lc,lc_1752173265,None,text,color,"{'maintenance_time': 2.0, 'circle_size': 300, 'nb_segments': 360, 'outer_radius': 200, 'inner_radius': 150, 'wheel_beginning': 0, 'wheel_end': 360, 'data_path': '../data/', 'participant_id': 'lc', 'recall_stim_type': None, 'response_type': 'text', 'match_stim_type': 'color', 'nb_stim_total': 45, 'nb_stim_per_trial': 45, 'nb_parity': 0, 'fullscreen': True, 'color_to_text_filename': '', 'session_id': 'lc_1752173265'}",
,,84.40463529992849,fushia parfait,312.0,0,lc,lc_1752173265,None,text,color,"{'maintenance_time': 2.0, 'circle_size': 300, 'nb_segments': 360, 'outer_radius': 200, 'inner_radius': 150, 'wheel_beginning': 0, 'wheel_end': 360, 'data_path': '../data/', 'participant_id': 'lc', 'recall_stim_type': None, 'response_type': 'text', 'match_stim_type': 'color', 'nb_stim_total': 45, 'nb_stim_per_trial': 45, 'nb_parity': 0, 'fullscreen': True, 'color_to_text_filename': '', 'session_id': 'lc_1752173265'}",
,,113.37494000000879,turquoise parfait,176.0,0,lc,lc_1752173265,None,text,color,"{'maintenance_time': 2.0, 'circle_size': 300, 'nb_segments': 360, 'outer_radius': 200, 'inner_radius': 150, 'wheel_beginning': 0, 'wheel_end': 360, 'data_path': '../data/', 'participant_id': 'lc', 'recall_stim_type': None, 'response_type': 'text', 'match_stim_type': 'color', 'nb_stim_total': 45, 'nb_stim_per_trial': 45, 'nb_parity': 0, 'fullscreen': True, 'color_to_text_filename': '', 'session_id': 'lc_1752173265'}",
,,140.96045359992422,mauve moyen violet,256.0,0,lc,lc_1752173265,None,text,color,"{'maintenance_time': 2.0, 'circle_size': 300, 'nb_segments': 360, 'outer_radius': 200, 'inner_radius': 150, 'wheel_beginning': 0, 'wheel_end': 360, 'data_path': '../data/', 'participant_id': 'lc', 'recall_stim_type': None, 'response_type': 'text', 'match_stim_type': 'color', 'nb_stim_total': 45, 'nb_stim_per_trial': 45, 'nb_parity': 0, 'fullscreen': True, 'color_to_text_filename': '', 'session_id': 'lc_1752173265'}",
,,169.32983760000207,vert leger turquoise,136.0,0,lc,lc_1752173265,None,text,color,"{'maintenance_time': 2.0, 'circle_size': 300, 'nb_segments': 360, 'outer_radius': 200, 'inner_radius': 150, 'wheel_beginning': 0, 'wheel_end': 360, 'data_path': '../data/', 'participant_id': 'lc', 'recall_stim_type': None, 'response_type': 'text', 'match_stim_type': 'color', 'nb_stim_total': 45, 'nb_stim_per_trial': 45, 'nb_parity': 0, 'fullscreen': True, 'color_to_text_filename': '', 'session_id': 'lc_1752173265'}",
,,175.77968299994245,mauve leger violet,264.0,0,lc,lc_1752173265,None,text,color,"{'maintenance_time': 2.0, 'circle_size': 300, 'nb_segments': 360, 'outer_radius': 200, 'inner_radius': 150, 'wheel_beginning': 0, 'wheel_end': 360, 'data_path': '../data/', 'participant_id': 'lc', 'recall_stim_type': None, 'response_type': 'text', 'match_stim_type': 'color', 'nb_stim_total': 45, 'nb_stim_per_trial': 45, 'nb_parity': 0, 'fullscreen': True, 'color_to_text_filename': '', 'session_id': 'lc_1752173265'}",
,,191.5899453999009,bleu moyen violet,240.0,0,lc,lc_1752173265,None,text,color,"{'maintenance_time': 2.0, 'circle_size': 300, 'nb_segments': 360, 'outer_radius': 200, 'inner_radius': 150, 'wheel_beginning': 0, 'wheel_end': 360, 'data_path': '../data/', 'participant_id': 'lc', 'recall_stim_type': None, 'response_type': 'text', 'match_stim_type': 'color', 'nb_stim_total': 45, 'nb_stim_per_trial': 45, 'nb_parity': 0, 'fullscreen': True, 'color_to_text_filename': '', 'session_id': 'lc_1752173265'}",
,,197.1041159000015,turquoise parfait,184.0,0,lc,lc_1752173265,None,text,color,"{'maintenance_time': 2.0, 'circle_size': 300, 'nb_segments': 360, 'outer_radius': 200, 'inner_radius': 150, 'wheel_beginning': 0, 'wheel_end': 360, 'data_path': '../data/', 'participant_id': 'lc', 'recall_stim_type': None, 'response_type': 'text', 'match_stim_type': 'color', 'nb_stim_total': 45, 'nb_stim_per_trial': 45, 'nb_parity': 0, 'fullscreen': True, 'color_to_text_filename': '', 'session_id': 'lc_1752173265'}",
,,205.54042320000008,vert moyen jaune,88.0,0,lc,lc_1752173265,None,text,color,"{'maintenance_time': 2.0, 'circle_size': 300, 'nb_segments': 360, 'outer_radius': 200, 'inner_radius': 150, 'wheel_beginning': 0, 'wheel_end': 360, 'data_path': '../data/', 'participant_id': 'lc', 'recall_stim_type': None, 'response_type': 'text', 'match_stim_type': 'color', 'nb_stim_total': 45, 'nb_stim_per_trial': 45, 'nb_parity': 0, 'fullscreen': True, 'color_to_text_filename': '', 'session_id': 'lc_1752173265'}",
,,208.6230993999634,jaune parfait,64.0,0,lc,lc_1752173265,None,text,color,"{'maintenance_time': 2.0, 'circle_size': 300, 'nb_segments': 360, 'outer_radius': 200, 'inner_radius': 150, 'wheel_beginning': 0, 'wheel_end': 360, 'data_path': '../data/', 'participant_id': 'lc', 'recall_stim_type': None, 'response_type': 'text', 'match_stim_type': 'color', 'nb_stim_total': 45, 'nb_stim_per_trial': 45, 'nb_parity': 0, 'fullscreen': True, 'color_to_text_filename': '', 'session_id': 'lc_1752173265'}",
,,224.9442987999646,vert parfait,128.0,0,lc,lc_1752173265,None,text,color,"{'maintenance_time': 2.0, 'circle_size': 300, 'nb_segments': 360, 'outer_radius': 200, 'inner_radius': 150, 'wheel_beginning': 0, 'wheel_end': 360, 'data_path': '../data/', 'participant_id': 'lc', 'recall_stim_type': None, 'response_type': 'text', 'match_stim_type': 'color', 'nb_stim_total': 45, 'nb_stim_per_trial': 45, 'nb_parity': 0, 'fullscreen': True, 'color_to_text_filename': '', 'session_id': 'lc_1752173265'}",
,,240.43995239993092,bleu parfait,200.0,0,lc,lc_1752173265,None,text,color,"{'maintenance_time': 2.0, 'circle_size': 300, 'nb_segments': 360, 'outer_radius': 200, 'inner_radius': 150, 'wheel_beginning': 0, 'wheel_end': 360, 'data_path': '../data/', 'participant_id': 'lc', 'recall_stim_type': None, 'response_type': 'text', 'match_stim_type': 'color', 'nb_stim_total': 45, 'nb_stim_per_trial': 45, 'nb_parity': 0, 'fullscreen': True, 'color_to_text_filename': '', 'session_id': 'lc_1752173265'}",
,,249.82179299998097,turquoise tres leger vert,168.0,0,lc,lc_1752173265,None,text,color,"{'maintenance_time': 2.0, 'circle_size': 300, 'nb_segments': 360, 'outer_radius': 200, 'inner_radius': 150, 'wheel_beginning': 0, 'wheel_end': 360, 'data_path': '../data/', 'participant_id': 'lc', 'recall_stim_type': None, 'response_type': 'text', 'match_stim_type': 'color', 'nb_stim_total': 45, 'nb_stim_per_trial': 45, 'nb_parity': 0, 'fullscreen': True, 'color_to_text_filename': '', 'session_id': 'lc_1752173265'}",
,,258.23609899997246,vert moyen jaune,96.0,0,lc,lc_1752173265,None,text,color,"{'maintenance_time': 2.0, 'circle_size': 300, 'nb_segments': 360, 'outer_radius': 200, 'inner_radius': 150, 'wheel_beginning': 0, 'wheel_end': 360, 'data_path': '../data/', 'participant_id': 'lc', 'recall_stim_type': None, 'response_type': 'text', 'match_stim_type': 'color', 'nb_stim_total': 45, 'nb_stim_per_trial': 45, 'nb_parity': 0, 'fullscreen': True, 'color_to_text_filename': '', 'session_id': 'lc_1752173265'}",
,,266.7980377000058,orange leger fushia,16.0,0,lc,lc_1752173265,None,text,color,"{'maintenance_time': 2.0, 'circle_size': 300, 'nb_segments': 360, 'outer_radius': 200, 'inner_radius': 150, 'wheel_beginning': 0, 'wheel_end': 360, 'data_path': '../data/', 'participant_id': 'lc', 'recall_stim_type': None, 'response_type': 'text', 'match_stim_type': 'color', 'nb_stim_total': 45, 'nb_stim_per_trial': 45, 'nb_parity': 0, 'fullscreen': True, 'color_to_text_filename': '', 'session_id': 'lc_1752173265'}",
,,276.5494902000064,fushia tres leger orange,344.0,0,lc,lc_1752173265,None,text,color,"{'maintenance_time': 2.0, 'circle_size': 300, 'nb_segments': 360, 'outer_radius': 200, 'inner_radius': 150, 'wheel_beginning': 0, 'wheel_end': 360, 'data_path': '../data/', 'participant_id': 'lc', 'recall_stim_type': None, 'response_type': 'text', 'match_stim_type': 'color', 'nb_stim_total': 45, 'nb_stim_per_trial': 45, 'nb_parity': 0, 'fullscreen': True, 'color_to_text_filename': '', 'session_id': 'lc_1752173265'}",
,,280.49606589996256,orange parfait,32.0,0,lc,lc_1752173265,None,text,color,"{'maintenance_time': 2.0, 'circle_size': 300, 'nb_segments': 360, 'outer_radius': 200, 'inner_radius': 150, 'wheel_beginning': 0, 'wheel_end': 360, 'data_path': '../data/', 'participant_id': 'lc', 'recall_stim_type': None, 'response_type': 'text', 'match_stim_type': 'color', 'nb_stim_total': 45, 'nb_stim_per_trial': 45, 'nb_parity': 0, 'fullscreen': True, 'color_to_text_filename': '', 'session_id': 'lc_1752173265'}",
,,287.1223922999343,bleu leger violet,216.0,0,lc,lc_1752173265,None,text,color,"{'maintenance_time': 2.0, 'circle_size': 300, 'nb_segments': 360, 'outer_radius': 200, 'inner_radius': 150, 'wheel_beginning': 0, 'wheel_end': 360, 'data_path': '../data/', 'participant_id': 'lc', 'recall_stim_type': None, 'response_type': 'text', 'match_stim_type': 'color', 'nb_stim_total': 45, 'nb_stim_per_trial': 45, 'nb_parity': 0, 'fullscreen': True, 'color_to_text_filename': '', 'session_id': 'lc_1752173265'}",
,,293.2842972999206,vert tres leger jaune,104.0,0,lc,lc_1752173265,None,text,color,"{'maintenance_time': 2.0, 'circle_size': 300, 'nb_segments': 360, 'outer_radius': 200, 'inner_radius': 150, 'wheel_beginning': 0, 'wheel_end': 360, 'data_path': '../data/', 'participant_id': 'lc', 'recall_stim_type': None, 'response_type': 'text', 'match_stim_type': 'color', 'nb_stim_total': 45, 'nb_stim_per_trial': 45, 'nb_parity': 0, 'fullscreen': True, 'color_to_text_filename': '', 'session_id': 'lc_1752173265'}",
,,297.47657449997496,jaune tres leger vert,72.0,0,lc,lc_1752173265,None,text,color,"{'maintenance_time': 2.0, 'circle_size': 300, 'nb_segments': 360, 'outer_radius': 200, 'inner_radius': 150, 'wheel_beginning': 0, 'wheel_end': 360, 'data_path': '../data/', 'participant_id': 'lc', 'recall_stim_type': None, 'response_type': 'text', 'match_stim_type': 'color', 'nb_stim_total': 45, 'nb_stim_per_trial': 45, 'nb_parity': 0, 'fullscreen': True, 'color_to_text_filename': '', 'session_id': 'lc_1752173265'}",
,,303.406453399919,jaune tres leger orange,48.0,0,lc,lc_1752173265,None,text,color,"{'maintenance_time': 2.0, 'circle_size': 300, 'nb_segments': 360, 'outer_radius': 200, 'inner_radius': 150, 'wheel_beginning': 0, 'wheel_end': 360, 'data_path': '../data/', 'participant_id': 'lc', 'recall_stim_type': None, 'response_type': 'text', 'match_stim_type': 'color', 'nb_stim_total': 45, 'nb_stim_per_trial': 45, 'nb_parity': 0, 'fullscreen': True, 'color_to_text_filename': '', 'session_id': 'lc_1752173265'}",
,,317.8719100999879,fushia tres leger mauve,328.0,0,lc,lc_1752173265,None,text,color,"{'maintenance_time': 2.0, 'circle_size': 300, 'nb_segments': 360, 'outer_radius': 200, 'inner_radius': 150, 'wheel_beginning': 0, 'wheel_end': 360, 'data_path': '../data/', 'participant_id': 'lc', 'recall_stim_type': None, 'response_type': 'text', 'match_stim_type': 'color', 'nb_stim_total': 45, 'nb_stim_per_trial': 45, 'nb_parity': 0, 'fullscreen': True, 'color_to_text_filename': '', 'session_id': 'lc_1752173265'}",
,,333.7700409999816,turquoise leger bleu,160.0,0,lc,lc_1752173265,None,text,color,"{'maintenance_time': 2.0, 'circle_size': 300, 'nb_segments': 360, 'outer_radius': 200, 'inner_radius': 150, 'wheel_beginning': 0, 'wheel_end': 360, 'data_path': '../data/', 'participant_id': 'lc', 'recall_stim_type': None, 'response_type': 'text', 'match_stim_type': 'color', 'nb_stim_total': 45, 'nb_stim_per_trial': 45, 'nb_parity': 0, 'fullscreen': True, 'color_to_text_filename': '', 'session_id': 'lc_1752173265'}",
,,347.4222876999993,fushia leger mauve,320.0,0,lc,lc_1752173265,None,text,color,"{'maintenance_time': 2.0, 'circle_size': 300, 'nb_segments': 360, 'outer_radius': 200, 'inner_radius': 150, 'wheel_beginning': 0, 'wheel_end': 360, 'data_path': '../data/', 'participant_id': 'lc', 'recall_stim_type': None, 'response_type': 'text', 'match_stim_type': 'color', 'nb_stim_total': 45, 'nb_stim_per_trial': 45, 'nb_parity': 0, 'fullscreen': True, 'color_to_text_filename': '', 'session_id': 'lc_1752173265'}",
,,361.5382261999184,orange moyen fushia,0.0,0,lc,lc_1752173265,None,text,color,"{'maintenance_time': 2.0, 'circle_size': 300, 'nb_segments': 360, 'outer_radius': 200, 'inner_radius': 150, 'wheel_beginning': 0, 'wheel_end': 360, 'data_path': '../data/', 'participant_id': 'lc', 'recall_stim_type': None, 'response_type': 'text', 'match_stim_type': 'color', 'nb_stim_total': 45, 'nb_stim_per_trial': 45, 'nb_parity': 0, 'fullscreen': True, 'color_to_text_filename': '', 'session_id': 'lc_1752173265'}",
,,370.46214889991097,violet leger bleu,248.0,0,lc,lc_1752173265,None,text,color,"{'maintenance_time': 2.0, 'circle_size': 300, 'nb_segments': 360, 'outer_radius': 200, 'inner_radius': 150, 'wheel_beginning': 0, 'wheel_end': 360, 'data_path': '../data/', 'participant_id': 'lc', 'recall_stim_type': None, 'response_type': 'text', 'match_stim_type': 'color', 'nb_stim_total': 45, 'nb_stim_per_trial': 45, 'nb_parity': 0, 'fullscreen': True, 'color_to_text_filename': '', 'session_id': 'lc_1752173265'}",
,,380.53017669997644,orange tres leger fushia,8.0,0,lc,lc_1752173265,None,text,color,"{'maintenance_time': 2.0, 'circle_size': 300, 'nb_segments': 360, 'outer_radius': 200, 'inner_radius': 150, 'wheel_beginning': 0, 'wheel_end': 360, 'data_path': '../data/', 'participant_id': 'lc', 'recall_stim_type': None, 'response_type': 'text', 'match_stim_type': 'color', 'nb_stim_total': 45, 'nb_stim_per_trial': 45, 'nb_parity': 0, 'fullscreen': True, 'color_to_text_filename': '', 'session_id': 'lc_1752173265'}",
,,384.88028639997356,jaune leger orange,40.0,0,lc,lc_1752173265,None,text,color,"{'maintenance_time': 2.0, 'circle_size': 300, 'nb_segments': 360, 'outer_radius': 200, 'inner_radius': 150, 'wheel_beginning': 0, 'wheel_end': 360, 'data_path': '../data/', 'participant_id': 'lc', 'recall_stim_type': None, 'response_type': 'text', 'match_stim_type': 'color', 'nb_stim_total': 45, 'nb_stim_per_trial': 45, 'nb_parity': 0, 'fullscreen': True, 'color_to_text_filename': '', 'session_id': 'lc_1752173265'}",
,,400.14997699996457,bleu moyen violet,224.0,0,lc,lc_1752173265,None,text,color,"{'maintenance_time': 2.0, 'circle_size': 300, 'nb_segments': 360, 'outer_radius': 200, 'inner_radius': 150, 'wheel_beginning': 0, 'wheel_end': 360, 'data_path': '../data/', 'participant_id': 'lc', 'recall_stim_type': None, 'response_type': 'text', 'match_stim_type': 'color', 'nb_stim_total': 45, 'nb_stim_per_trial': 45, 'nb_parity': 0, 'fullscreen': True, 'color_to_text_filename': '', 'session_id': 'lc_1752173265'}",
,,410.10349529993255,vert tres tres leger jaune,120.0,0,lc,lc_1752173265,None,text,color,"{'maintenance_time': 2.0, 'circle_size': 300, 'nb_segments': 360, 'outer_radius': 200, 'inner_radius': 150, 'wheel_beginning': 0, 'wheel_end': 360, 'data_path': '../data/', 'participant_id': 'lc', 'recall_stim_type': None, 'response_type': 'text', 'match_stim_type': 'color', 'nb_stim_total': 45, 'nb_stim_per_trial': 45, 'nb_parity': 0, 'fullscreen': True, 'color_to_text_filename': '', 'session_id': 'lc_1752173265'}",
,,419.2749496999895,mauve moyen violet,280.0,0,lc,lc_1752173265,None,text,color,"{'maintenance_time': 2.0, 'circle_size': 300, 'nb_segments': 360, 'outer_radius': 200, 'inner_radius': 150, 'wheel_beginning': 0, 'wheel_end': 360, 'data_path': '../data/', 'participant_id': 'lc', 'recall_stim_type': None, 'response_type': 'text', 'match_stim_type': 'color', 'nb_stim_total': 45, 'nb_stim_per_trial': 45, 'nb_parity': 0, 'fullscreen': True, 'color_to_text_filename': '', 'session_id': 'lc_1752173265'}",
,,428.07217539998237,vert tres jaune,80.0,0,lc,lc_1752173265,None,text,color,"{'maintenance_time': 2.0, 'circle_size': 300, 'nb_segments': 360, 'outer_radius': 200, 'inner_radius': 150, 'wheel_beginning': 0, 'wheel_end': 360, 'data_path': '../data/', 'participant_id': 'lc', 'recall_stim_type': None, 'response_type': 'text', 'match_stim_type': 'color', 'nb_stim_total': 45, 'nb_stim_per_trial': 45, 'nb_parity': 0, 'fullscreen': True, 'color_to_text_filename': '', 'session_id': 'lc_1752173265'}",
,,430.83017759991344,orange,24.0,0,lc,lc_1752173265,None,text,color,"{'maintenance_time': 2.0, 'circle_size': 300, 'nb_segments': 360, 'outer_radius': 200, 'inner_radius': 150, 'wheel_beginning': 0, 'wheel_end': 360, 'data_path': '../data/', 'participant_id': 'lc', 'recall_stim_type': None, 'response_type': 'text', 'match_stim_type': 'color', 'nb_stim_total': 45, 'nb_stim_per_trial': 45, 'nb_parity': 0, 'fullscreen': True, 'color_to_text_filename': '', 'session_id': 'lc_1752173265'}",
,,443.64924559998326,fushia tres orange,352.0,0,lc,lc_1752173265,None,text,color,"{'maintenance_time': 2.0, 'circle_size': 300, 'nb_segments': 360, 'outer_radius': 200, 'inner_radius': 150, 'wheel_beginning': 0, 'wheel_end': 360, 'data_path': '../data/', 'participant_id': 'lc', 'recall_stim_type': None, 'response_type': 'text', 'match_stim_type': 'color', 'nb_stim_total': 45, 'nb_stim_per_trial': 45, 'nb_parity': 0, 'fullscreen': True, 'color_to_text_filename': '', 'session_id': 'lc_1752173265'}",
,,449.26525229995605,vert,112.0,0,lc,lc_1752173265,None,text,color,"{'maintenance_time': 2.0, 'circle_size': 300, 'nb_segments': 360, 'outer_radius': 200, 'inner_radius': 150, 'wheel_beginning': 0, 'wheel_end': 360, 'data_path': '../data/', 'participant_id': 'lc', 'recall_stim_type': None, 'response_type': 'text', 'match_stim_type': 'color', 'nb_stim_total': 45, 'nb_stim_per_trial': 45, 'nb_parity': 0, 'fullscreen': True, 'color_to_text_filename': '', 'session_id': 'lc_1752173265'}",
,,466.3158832999179,turquoise tres vert,144.0,0,lc,lc_1752173265,None,text,color,"{'maintenance_time': 2.0, 'circle_size': 300, 'nb_segments': 360, 'outer_radius': 200, 'inner_radius': 150, 'wheel_beginning': 0, 'wheel_end': 360, 'data_path': '../data/', 'participant_id': 'lc', 'recall_stim_type': None, 'response_type': 'text', 'match_stim_type': 'color', 'nb_stim_total': 45, 'nb_stim_per_trial': 45, 'nb_parity': 0, 'fullscreen': True, 'color_to_text_filename': '', 'session_id': 'lc_1752173265'}",
,,473.6177936999593,mauve leger violet,296.0,0,lc,lc_1752173265,None,text,color,"{'maintenance_time': 2.0, 'circle_size': 300, 'nb_segments': 360, 'outer_radius': 200, 'inner_radius': 150, 'wheel_beginning': 0, 'wheel_end': 360, 'data_path': '../data/', 'participant_id': 'lc', 'recall_stim_type': None, 'response_type': 'text', 'match_stim_type': 'color', 'nb_stim_total': 45, 'nb_stim_per_trial': 45, 'nb_parity': 0, 'fullscreen': True, 'color_to_text_filename': '', 'session_id': 'lc_1752173265'}",
,,475.99197029997595,jaune,56.0,0,lc,lc_1752173265,None,text,color,"{'maintenance_time': 2.0, 'circle_size': 300, 'nb_segments': 360, 'outer_radius': 200, 'inner_radius': 150, 'wheel_beginning': 0, 'wheel_end': 360, 'data_path': '../data/', 'participant_id': 'lc', 'recall_stim_type': None, 'response_type': 'text', 'match_stim_type': 'color', 'nb_stim_total': 45, 'nb_stim_per_trial': 45, 'nb_parity': 0, 'fullscreen': True, 'color_to_text_filename': '', 'session_id': 'lc_1752173265'}",
,,487.3071637999965,fushia leger orange,336.0,0,lc,lc_1752173265,None,text,color,"{'maintenance_time': 2.0, 'circle_size': 300, 'nb_segments': 360, 'outer_radius': 200, 'inner_radius': 150, 'wheel_beginning': 0, 'wheel_end': 360, 'data_path': '../data/', 'participant_id': 'lc', 'recall_stim_type': None, 'response_type': 'text', 'match_stim_type': 'color', 'nb_stim_total': 45, 'nb_stim_per_trial': 45, 'nb_parity': 0, 'fullscreen': True, 'color_to_text_filename': '', 'session_id': 'lc_1752173265'}",
,,495.8071416999446,mauve leger violet,272.0,0,lc,lc_1752173265,None,text,color,"{'maintenance_time': 2.0, 'circle_size': 300, 'nb_segments': 360, 'outer_radius': 200, 'inner_radius': 150, 'wheel_beginning': 0, 'wheel_end': 360, 'data_path': '../data/', 'participant_id': 'lc', 'recall_stim_type': None, 'response_type': 'text', 'match_stim_type': 'color', 'nb_stim_total': 45, 'nb_stim_per_trial': 45, 'nb_parity': 0, 'fullscreen': True, 'color_to_text_filename': '', 'session_id': 'lc_1752173265'}",
,,506.7145603999961,turquoise leger vert,152.0,0,lc,lc_1752173265,None,text,color,"{'maintenance_time': 2.0, 'circle_size': 300, 'nb_segments': 360, 'outer_radius': 200, 'inner_radius': 150, 'wheel_beginning': 0, 'wheel_end': 360, 'data_path': '../data/', 'participant_id': 'lc', 'recall_stim_type': None, 'response_type': 'text', 'match_stim_type': 'color', 'nb_stim_total': 45, 'nb_stim_per_trial': 45, 'nb_parity': 0, 'fullscreen': True, 'color_to_text_filename': '', 'session_id': 'lc_1752173265'}",
,,517.0245705000125,bleu tres leger turquoise,192.0,0,lc,lc_1752173265,None,text,color,"{'maintenance_time': 2.0, 'circle_size': 300, 'nb_segments': 360, 'outer_radius': 200, 'inner_radius': 150, 'wheel_beginning': 0, 'wheel_end': 360, 'data_path': '../data/', 'participant_id': 'lc', 'recall_stim_type': None, 'response_type': 'text', 'match_stim_type': 'color', 'nb_stim_total': 45, 'nb_stim_per_trial': 45, 'nb_parity': 0, 'fullscreen': True, 'color_to_text_filename': '', 'session_id': 'lc_1752173265'}",
,,524.7956966999918,fushia moyen mauve,304.0,0,lc,lc_1752173265,None,text,color,"{'maintenance_time': 2.0, 'circle_size': 300, 'nb_segments': 360, 'outer_radius': 200, 'inner_radius': 150, 'wheel_beginning': 0, 'wheel_end': 360, 'data_path': '../data/', 'participant_id': 'lc', 'recall_stim_type': None, 'response_type': 'text', 'match_stim_type': 'color', 'nb_stim_total': 45, 'nb_stim_per_trial': 45, 'nb_parity': 0, 'fullscreen': True, 'color_to_text_filename': '', 'session_id': 'lc_1752173265'}",
