thisRow.t,notes,onset,stim,stim_type,response,sequence_position,participant_id,session_id,recall_stim_type,response_type,match_stim_type,parameters,
,,26.46328749999884,108.0,angle,123.37783203643045,0,lc,lc_1752252348,color,wheel,None,"{'maintenance_time': 2.0, 'circle_size': 300, 'nb_segments': 360, 'outer_radius': 200, 'inner_radius': 150, 'wheel_beginning': 0, 'wheel_end': 360, 'data_path': '../data/', 'participant_id': 'lc', 'recall_stim_type': 'color', 'match_stim_type': None, 'response_type': 'wheel', 'nb_stim_total': 30, 'nb_stim_per_trial': 1, 'nb_parity': 0, 'fullscreen': False, 'color_to_text_filename': '', 'session_id': 'lc_1752252348'}",
,,45.51212609999857,288.0,angle,277.96961039432136,0,lc,lc_1752252348,color,wheel,None,"{'maintenance_time': 2.0, 'circle_size': 300, 'nb_segments': 360, 'outer_radius': 200, 'inner_radius': 150, 'wheel_beginning': 0, 'wheel_end': 360, 'data_path': '../data/', 'participant_id': 'lc', 'recall_stim_type': 'color', 'match_stim_type': None, 'response_type': 'wheel', 'nb_stim_total': 30, 'nb_stim_per_trial': 1, 'nb_parity': 0, 'fullscreen': False, 'color_to_text_filename': '', 'session_id': 'lc_1752252348'}",
,,65.179809199999,84.0,angle,87.04922089099365,0,lc,lc_1752252348,color,wheel,None,"{'maintenance_time': 2.0, 'circle_size': 300, 'nb_segments': 360, 'outer_radius': 200, 'inner_radius': 150, 'wheel_beginning': 0, 'wheel_end': 360, 'data_path': '../data/', 'participant_id': 'lc', 'recall_stim_type': 'color', 'match_stim_type': None, 'response_type': 'wheel', 'nb_stim_total': 30, 'nb_stim_per_trial': 1, 'nb_parity': 0, 'fullscreen': False, 'color_to_text_filename': '', 'session_id': 'lc_1752252348'}",
,,87.31512619999921,240.0,angle,239.61317604705323,0,lc,lc_1752252348,color,wheel,None,"{'maintenance_time': 2.0, 'circle_size': 300, 'nb_segments': 360, 'outer_radius': 200, 'inner_radius': 150, 'wheel_beginning': 0, 'wheel_end': 360, 'data_path': '../data/', 'participant_id': 'lc', 'recall_stim_type': 'color', 'match_stim_type': None, 'response_type': 'wheel', 'nb_stim_total': 30, 'nb_stim_per_trial': 1, 'nb_parity': 0, 'fullscreen': False, 'color_to_text_filename': '', 'session_id': 'lc_1752252348'}",
,,104.2809475999984,48.0,angle,47.164789153453505,0,lc,lc_1752252348,color,wheel,None,"{'maintenance_time': 2.0, 'circle_size': 300, 'nb_segments': 360, 'outer_radius': 200, 'inner_radius': 150, 'wheel_beginning': 0, 'wheel_end': 360, 'data_path': '../data/', 'participant_id': 'lc', 'recall_stim_type': 'color', 'match_stim_type': None, 'response_type': 'wheel', 'nb_stim_total': 30, 'nb_stim_per_trial': 1, 'nb_parity': 0, 'fullscreen': False, 'color_to_text_filename': '', 'session_id': 'lc_1752252348'}",
,,122.88072469999861,144.0,angle,139.9937439858234,0,lc,lc_1752252348,color,wheel,None,"{'maintenance_time': 2.0, 'circle_size': 300, 'nb_segments': 360, 'outer_radius': 200, 'inner_radius': 150, 'wheel_beginning': 0, 'wheel_end': 360, 'data_path': '../data/', 'participant_id': 'lc', 'recall_stim_type': 'color', 'match_stim_type': None, 'response_type': 'wheel', 'nb_stim_total': 30, 'nb_stim_per_trial': 1, 'nb_parity': 0, 'fullscreen': False, 'color_to_text_filename': '', 'session_id': 'lc_1752252348'}",
,,147.03203779999967,204.0,angle,219.63843101936826,0,lc,lc_1752252348,color,wheel,None,"{'maintenance_time': 2.0, 'circle_size': 300, 'nb_segments': 360, 'outer_radius': 200, 'inner_radius': 150, 'wheel_beginning': 0, 'wheel_end': 360, 'data_path': '../data/', 'participant_id': 'lc', 'recall_stim_type': 'color', 'match_stim_type': None, 'response_type': 'wheel', 'nb_stim_total': 30, 'nb_stim_per_trial': 1, 'nb_parity': 0, 'fullscreen': False, 'color_to_text_filename': '', 'session_id': 'lc_1752252348'}",
,,172.38191509999888,132.0,angle,101.36141114796064,0,lc,lc_1752252348,color,wheel,None,"{'maintenance_time': 2.0, 'circle_size': 300, 'nb_segments': 360, 'outer_radius': 200, 'inner_radius': 150, 'wheel_beginning': 0, 'wheel_end': 360, 'data_path': '../data/', 'participant_id': 'lc', 'recall_stim_type': 'color', 'match_stim_type': None, 'response_type': 'wheel', 'nb_stim_total': 30, 'nb_stim_per_trial': 1, 'nb_parity': 0, 'fullscreen': False, 'color_to_text_filename': '', 'session_id': 'lc_1752252348'}",
,,187.69792659999985,96.0,angle,101.1648801775486,0,lc,lc_1752252348,color,wheel,None,"{'maintenance_time': 2.0, 'circle_size': 300, 'nb_segments': 360, 'outer_radius': 200, 'inner_radius': 150, 'wheel_beginning': 0, 'wheel_end': 360, 'data_path': '../data/', 'participant_id': 'lc', 'recall_stim_type': 'color', 'match_stim_type': None, 'response_type': 'wheel', 'nb_stim_total': 30, 'nb_stim_per_trial': 1, 'nb_parity': 0, 'fullscreen': False, 'color_to_text_filename': '', 'session_id': 'lc_1752252348'}",
,,210.93213099999957,36.0,angle,42.87890360333855,0,lc,lc_1752252348,color,wheel,None,"{'maintenance_time': 2.0, 'circle_size': 300, 'nb_segments': 360, 'outer_radius': 200, 'inner_radius': 150, 'wheel_beginning': 0, 'wheel_end': 360, 'data_path': '../data/', 'participant_id': 'lc', 'recall_stim_type': 'color', 'match_stim_type': None, 'response_type': 'wheel', 'nb_stim_total': 30, 'nb_stim_per_trial': 1, 'nb_parity': 0, 'fullscreen': False, 'color_to_text_filename': '', 'session_id': 'lc_1752252348'}",
,,224.4819394999995,12.0,angle,25.880273670068846,0,lc,lc_1752252348,color,wheel,None,"{'maintenance_time': 2.0, 'circle_size': 300, 'nb_segments': 360, 'outer_radius': 200, 'inner_radius': 150, 'wheel_beginning': 0, 'wheel_end': 360, 'data_path': '../data/', 'participant_id': 'lc', 'recall_stim_type': 'color', 'match_stim_type': None, 'response_type': 'wheel', 'nb_stim_total': 30, 'nb_stim_per_trial': 1, 'nb_parity': 0, 'fullscreen': False, 'color_to_text_filename': '', 'session_id': 'lc_1752252348'}",
,,245.59861669999918,60.0,angle,64.03804001730255,0,lc,lc_1752252348,color,wheel,None,"{'maintenance_time': 2.0, 'circle_size': 300, 'nb_segments': 360, 'outer_radius': 200, 'inner_radius': 150, 'wheel_beginning': 0, 'wheel_end': 360, 'data_path': '../data/', 'participant_id': 'lc', 'recall_stim_type': 'color', 'match_stim_type': None, 'response_type': 'wheel', 'nb_stim_total': 30, 'nb_stim_per_trial': 1, 'nb_parity': 0, 'fullscreen': False, 'color_to_text_filename': '', 'session_id': 'lc_1752252348'}",
,,259.9500231999991,168.0,angle,174.36931724236476,0,lc,lc_1752252348,color,wheel,None,"{'maintenance_time': 2.0, 'circle_size': 300, 'nb_segments': 360, 'outer_radius': 200, 'inner_radius': 150, 'wheel_beginning': 0, 'wheel_end': 360, 'data_path': '../data/', 'participant_id': 'lc', 'recall_stim_type': 'color', 'match_stim_type': None, 'response_type': 'wheel', 'nb_stim_total': 30, 'nb_stim_per_trial': 1, 'nb_parity': 0, 'fullscreen': False, 'color_to_text_filename': '', 'session_id': 'lc_1752252348'}",
,,277.4683662999996,348.0,angle,331.36647440149943,0,lc,lc_1752252348,color,wheel,None,"{'maintenance_time': 2.0, 'circle_size': 300, 'nb_segments': 360, 'outer_radius': 200, 'inner_radius': 150, 'wheel_beginning': 0, 'wheel_end': 360, 'data_path': '../data/', 'participant_id': 'lc', 'recall_stim_type': 'color', 'match_stim_type': None, 'response_type': 'wheel', 'nb_stim_total': 30, 'nb_stim_per_trial': 1, 'nb_parity': 0, 'fullscreen': False, 'color_to_text_filename': '', 'session_id': 'lc_1752252348'}",
,,296.25035559999924,216.0,angle,215.20617264155243,0,lc,lc_1752252348,color,wheel,None,"{'maintenance_time': 2.0, 'circle_size': 300, 'nb_segments': 360, 'outer_radius': 200, 'inner_radius': 150, 'wheel_beginning': 0, 'wheel_end': 360, 'data_path': '../data/', 'participant_id': 'lc', 'recall_stim_type': 'color', 'match_stim_type': None, 'response_type': 'wheel', 'nb_stim_total': 30, 'nb_stim_per_trial': 1, 'nb_parity': 0, 'fullscreen': False, 'color_to_text_filename': '', 'session_id': 'lc_1752252348'}",
,,310.1348148999987,120.0,angle,98.78775628756283,0,lc,lc_1752252348,color,wheel,None,"{'maintenance_time': 2.0, 'circle_size': 300, 'nb_segments': 360, 'outer_radius': 200, 'inner_radius': 150, 'wheel_beginning': 0, 'wheel_end': 360, 'data_path': '../data/', 'participant_id': 'lc', 'recall_stim_type': 'color', 'match_stim_type': None, 'response_type': 'wheel', 'nb_stim_total': 30, 'nb_stim_per_trial': 1, 'nb_parity': 0, 'fullscreen': False, 'color_to_text_filename': '', 'session_id': 'lc_1752252348'}",
,,327.68483039999956,324.0,angle,329.54703926208896,0,lc,lc_1752252348,color,wheel,None,"{'maintenance_time': 2.0, 'circle_size': 300, 'nb_segments': 360, 'outer_radius': 200, 'inner_radius': 150, 'wheel_beginning': 0, 'wheel_end': 360, 'data_path': '../data/', 'participant_id': 'lc', 'recall_stim_type': 'color', 'match_stim_type': None, 'response_type': 'wheel', 'nb_stim_total': 30, 'nb_stim_per_trial': 1, 'nb_parity': 0, 'fullscreen': False, 'color_to_text_filename': '', 'session_id': 'lc_1752252348'}",
,,344.335266099999,192.0,angle,188.78775628756281,0,lc,lc_1752252348,color,wheel,None,"{'maintenance_time': 2.0, 'circle_size': 300, 'nb_segments': 360, 'outer_radius': 200, 'inner_radius': 150, 'wheel_beginning': 0, 'wheel_end': 360, 'data_path': '../data/', 'participant_id': 'lc', 'recall_stim_type': 'color', 'match_stim_type': None, 'response_type': 'wheel', 'nb_stim_total': 30, 'nb_stim_per_trial': 1, 'nb_parity': 0, 'fullscreen': False, 'color_to_text_filename': '', 'session_id': 'lc_1752252348'}",
,,357.00084979999883,180.0,angle,180.55896548083214,0,lc,lc_1752252348,color,wheel,None,"{'maintenance_time': 2.0, 'circle_size': 300, 'nb_segments': 360, 'outer_radius': 200, 'inner_radius': 150, 'wheel_beginning': 0, 'wheel_end': 360, 'data_path': '../data/', 'participant_id': 'lc', 'recall_stim_type': 'color', 'match_stim_type': None, 'response_type': 'wheel', 'nb_stim_total': 30, 'nb_stim_per_trial': 1, 'nb_parity': 0, 'fullscreen': False, 'color_to_text_filename': '', 'session_id': 'lc_1752252348'}",
,,371.4844233999993,312.0,angle,314.37497992598253,0,lc,lc_1752252348,color,wheel,None,"{'maintenance_time': 2.0, 'circle_size': 300, 'nb_segments': 360, 'outer_radius': 200, 'inner_radius': 150, 'wheel_beginning': 0, 'wheel_end': 360, 'data_path': '../data/', 'participant_id': 'lc', 'recall_stim_type': 'color', 'match_stim_type': None, 'response_type': 'wheel', 'nb_stim_total': 30, 'nb_stim_per_trial': 1, 'nb_parity': 0, 'fullscreen': False, 'color_to_text_filename': '', 'session_id': 'lc_1752252348'}",
,,385.00194679999913,24.0,angle,22.951170425074345,0,lc,lc_1752252348,color,wheel,None,"{'maintenance_time': 2.0, 'circle_size': 300, 'nb_segments': 360, 'outer_radius': 200, 'inner_radius': 150, 'wheel_beginning': 0, 'wheel_end': 360, 'data_path': '../data/', 'participant_id': 'lc', 'recall_stim_type': 'color', 'match_stim_type': None, 'response_type': 'wheel', 'nb_stim_total': 30, 'nb_stim_per_trial': 1, 'nb_parity': 0, 'fullscreen': False, 'color_to_text_filename': '', 'session_id': 'lc_1752252348'}",
,,399.1354675999992,276.0,angle,280.4914770123316,0,lc,lc_1752252348,color,wheel,None,"{'maintenance_time': 2.0, 'circle_size': 300, 'nb_segments': 360, 'outer_radius': 200, 'inner_radius': 150, 'wheel_beginning': 0, 'wheel_end': 360, 'data_path': '../data/', 'participant_id': 'lc', 'recall_stim_type': 'color', 'match_stim_type': None, 'response_type': 'wheel', 'nb_stim_total': 30, 'nb_stim_per_trial': 1, 'nb_parity': 0, 'fullscreen': False, 'color_to_text_filename': '', 'session_id': 'lc_1752252348'}",
,,413.06834329999947,300.0,angle,299.27907221417723,0,lc,lc_1752252348,color,wheel,None,"{'maintenance_time': 2.0, 'circle_size': 300, 'nb_segments': 360, 'outer_radius': 200, 'inner_radius': 150, 'wheel_beginning': 0, 'wheel_end': 360, 'data_path': '../data/', 'participant_id': 'lc', 'recall_stim_type': 'color', 'match_stim_type': None, 'response_type': 'wheel', 'nb_stim_total': 30, 'nb_stim_per_trial': 1, 'nb_parity': 0, 'fullscreen': False, 'color_to_text_filename': '', 'session_id': 'lc_1752252348'}",
,,426.5870208999986,156.0,angle,145.53918372862825,0,lc,lc_1752252348,color,wheel,None,"{'maintenance_time': 2.0, 'circle_size': 300, 'nb_segments': 360, 'outer_radius': 200, 'inner_radius': 150, 'wheel_beginning': 0, 'wheel_end': 360, 'data_path': '../data/', 'participant_id': 'lc', 'recall_stim_type': 'color', 'match_stim_type': None, 'response_type': 'wheel', 'nb_stim_total': 30, 'nb_stim_per_trial': 1, 'nb_parity': 0, 'fullscreen': False, 'color_to_text_filename': '', 'session_id': 'lc_1752252348'}",
,,443.7880266999982,252.0,angle,237.52880770915152,0,lc,lc_1752252348,color,wheel,None,"{'maintenance_time': 2.0, 'circle_size': 300, 'nb_segments': 360, 'outer_radius': 200, 'inner_radius': 150, 'wheel_beginning': 0, 'wheel_end': 360, 'data_path': '../data/', 'participant_id': 'lc', 'recall_stim_type': 'color', 'match_stim_type': None, 'response_type': 'wheel', 'nb_stim_total': 30, 'nb_stim_per_trial': 1, 'nb_parity': 0, 'fullscreen': False, 'color_to_text_filename': '', 'session_id': 'lc_1752252348'}",
,,457.8876215,336.0,angle,345.0304491972015,0,lc,lc_1752252348,color,wheel,None,"{'maintenance_time': 2.0, 'circle_size': 300, 'nb_segments': 360, 'outer_radius': 200, 'inner_radius': 150, 'wheel_beginning': 0, 'wheel_end': 360, 'data_path': '../data/', 'participant_id': 'lc', 'recall_stim_type': 'color', 'match_stim_type': None, 'response_type': 'wheel', 'nb_stim_total': 30, 'nb_stim_per_trial': 1, 'nb_parity': 0, 'fullscreen': False, 'color_to_text_filename': '', 'session_id': 'lc_1752252348'}",
,,472.0538078999998,0.0,angle,355.2594894261088,0,lc,lc_1752252348,color,wheel,None,"{'maintenance_time': 2.0, 'circle_size': 300, 'nb_segments': 360, 'outer_radius': 200, 'inner_radius': 150, 'wheel_beginning': 0, 'wheel_end': 360, 'data_path': '../data/', 'participant_id': 'lc', 'recall_stim_type': 'color', 'match_stim_type': None, 'response_type': 'wheel', 'nb_stim_total': 30, 'nb_stim_per_trial': 1, 'nb_parity': 0, 'fullscreen': False, 'color_to_text_filename': '', 'session_id': 'lc_1752252348'}",
,,489.35255269999834,228.0,angle,235.38588712124752,0,lc,lc_1752252348,color,wheel,None,"{'maintenance_time': 2.0, 'circle_size': 300, 'nb_segments': 360, 'outer_radius': 200, 'inner_radius': 150, 'wheel_beginning': 0, 'wheel_end': 360, 'data_path': '../data/', 'participant_id': 'lc', 'recall_stim_type': 'color', 'match_stim_type': None, 'response_type': 'wheel', 'nb_stim_total': 30, 'nb_stim_per_trial': 1, 'nb_parity': 0, 'fullscreen': False, 'color_to_text_filename': '', 'session_id': 'lc_1752252348'}",
,,506.40448169999945,72.0,angle,75.47584806258082,0,lc,lc_1752252348,color,wheel,None,"{'maintenance_time': 2.0, 'circle_size': 300, 'nb_segments': 360, 'outer_radius': 200, 'inner_radius': 150, 'wheel_beginning': 0, 'wheel_end': 360, 'data_path': '../data/', 'participant_id': 'lc', 'recall_stim_type': 'color', 'match_stim_type': None, 'response_type': 'wheel', 'nb_stim_total': 30, 'nb_stim_per_trial': 1, 'nb_parity': 0, 'fullscreen': False, 'color_to_text_filename': '', 'session_id': 'lc_1752252348'}",
,,519.5031018999998,264.0,angle,271.07585062079124,0,lc,lc_1752252348,color,wheel,None,"{'maintenance_time': 2.0, 'circle_size': 300, 'nb_segments': 360, 'outer_radius': 200, 'inner_radius': 150, 'wheel_beginning': 0, 'wheel_end': 360, 'data_path': '../data/', 'participant_id': 'lc', 'recall_stim_type': 'color', 'match_stim_type': None, 'response_type': 'wheel', 'nb_stim_total': 30, 'nb_stim_per_trial': 1, 'nb_parity': 0, 'fullscreen': False, 'color_to_text_filename': '', 'session_id': 'lc_1752252348'}",
